LineNo,UTC_Approx,TimeUS,I,GyrX,GyrY,GyrZ,AccX,AccY,AccZ,EG,EA,T,GH,AH,GHz,AHz
320,2023-01-20 10:49:56.202203,116185543,0,-0.00110909,-0.002927841,0.0003722008,0.004268475,0.2119226,-9.906707,0,0,26.79916,1,1,7975,996
480,2023-01-20 10:49:56.274936,116265509,0,-0.001801247,-0.003366931,0.000995671,0.008524433,0.2194521,-9.884665,0,0,26.79799,1,1,7975,996
789,2023-01-20 10:49:56.311684,116305911,0,-0.00206889,-0.003541977,-0.0001159964,0.01801076,0.1997459,-9.875162,0,0,26.79787,1,1,7975,996
946,2023-01-20 10:49:56.347811,116345631,0,-0.0006027147,-0.003763359,0.0001743196,0.01868325,0.2163313,-9.871488,0,0,26.79793,1,1,7975,996
1042,2023-01-20 10:49:56.384075,116385501,0,-0.001867738,-0.003613267,4.694446E-05,0.009336578,0.2032042,-9.889186,0,0,26.79809,1,1,7975,996
1086,2023-01-20 10:49:56.426615,116429387,0,-0.001578433,-0.003895305,0.000781184,0.008196039,0.2194979,-9.894416,0,0,26.79939,1,1,7975,996
1146,2023-01-20 10:49:56.473566,116475917,0,-0.001890802,-0.002616207,0.0004784617,0.007236685,0.2128762,-9.891197,0,0,26.80163,1,1,7975,996
1194,2023-01-20 10:49:56.522514,116524427,0,-0.002958777,-0.003348876,0.0003559322,0.01543021,0.2041678,-9.884186,0,0,26.80424,1,1,7975,996
1323,2023-01-20 10:49:56.562280,116563837,0,-0.002041356,-0.002368414,0.0005437824,0.01331552,0.2043679,-9.889366,0,0,26.80663,1,1,7975,996
1425,2023-01-20 10:49:56.602431,116603659,0,-0.0004644817,-0.003335704,0.0005418314,0.00232679,0.208371,-9.882698,0,0,26.80855,1,1,7975,996
1490,2023-01-20 10:49:56.643033,116644414,0,-0.001193734,-0.00346772,0.0006222217,0.02031887,0.207833,-9.893852,0,0,26.81049,1,1,7975,996
1791,2023-01-20 10:49:56.682873,116684404,0,-0.001739437,-0.002761472,0.001017096,0.01190358,0.2290568,-9.892616,0,0,26.81251,1,1,7975,996
1854,2023-01-20 10:49:56.723542,116725226,0,-0.001880412,-0.00357792,0.0004128141,0.006281107,0.2168011,-9.887924,0,0,26.81375,1,1,7975,996
1868,2023-01-20 10:49:56.762783,116764614,0,-0.001803542,-0.003273186,-0.0003502005,0.01741088,0.2110223,-9.887977,0,0,26.81433,1,1,7975,996
1900,2023-01-20 10:49:56.802467,116804438,0,-0.001537733,-0.003627068,-0.000331176,0.02268541,0.2067929,-9.885966,0,0,26.81467,1,1,7975,996
1905,2023-01-20 10:49:56.842449,116844420,0,-0.001887142,-0.002866066,0.0006867716,0.01919518,0.2079791,-9.878109,0,0,26.81426,1,1,7975,996
1941,2023-01-20 10:49:56.882471,116884442,0,-0.002007472,-0.002174411,0.0008568994,0.01449323,0.2069462,-9.886377,0,0,26.81489,1,1,7975,996
1947,2023-01-20 10:49:56.923288,116925260,0,-0.001547503,-0.003304658,0.0002407797,0.01585076,0.2064978,-9.867586,0,0,26.81586,1,1,7975,996
1961,2023-01-20 10:49:56.962587,116964559,0,-0.001185455,-0.002436897,0.0007055299,0.01351431,0.2203955,-9.875809,0,0,26.81684,1,1,7975,996
1992,2023-01-20 10:49:57.002454,117004425,0,-0.0008466511,-0.002772809,0.001446654,0.01474707,0.2093745,-9.890779,0,0,26.81844,1,1,7975,996
2000,2023-01-20 10:49:57.042733,117044696,0,-0.00240073,-0.002252802,0.0008359917,0.02078469,0.2108398,-9.881954,0,0,26.81987,1,1,7975,996
2036,2023-01-20 10:49:57.082479,117084434,0,-0.00151362,-0.003324035,0.0007035378,0.01893595,0.2199886,-9.887973,0,0,26.82108,1,1,7975,996
2042,2023-01-20 10:49:57.123271,117125218,0,-0.001214703,-0.002806821,0.0003717315,0.006857885,0.2228363,-9.890803,0,0,26.82291,1,1,7975,996
2055,2023-01-20 10:49:57.162601,117164540,0,-0.001671959,-0.002292302,0.0006852654,0.005717725,0.2051076,-9.872568,0,0,26.82504,1,1,7975,996
2084,2023-01-20 10:49:57.202815,117204466,0,-0.001034231,-0.003592822,4.712703E-05,0.01473398,0.2047317,-9.902667,0,0,26.8271,1,1,7975,996
2095,2023-01-20 10:49:57.247195,117244440,0,-0.0007405342,-0.002396317,0.0004265813,0.009826938,0.2051722,-9.889536,0,0,26.82856,1,1,7975,996
2134,2023-01-20 10:49:57.291574,117284412,0,-0.001387479,-0.002357831,-0.0001106595,0.01205251,0.2181842,-9.892795,0,0,26.83045,1,1,7975,996
2147,2023-01-20 10:49:57.336868,117325208,0,-0.0009548827,-0.003903078,0.001362977,0.02253245,0.2184497,-9.876745,0,0,26.83314,1,1,7975,996
2166,2023-01-20 10:49:57.380576,117364576,0,-0.00150003,-0.003775307,0.0008841558,0.01149138,0.2154221,-9.88658,0,0,26.83586,1,1,7975,996
2196,2023-01-20 10:49:57.420339,117404443,0,-0.002029773,-0.003149001,0.0004799838,0.0004654402,0.2182122,-9.888853,0,0,26.8378,1,1,7975,996
2207,2023-01-20 10:49:57.456682,117444418,0,-0.00222008,-0.002405982,-0.0002321362,0.008967141,0.2041109,-9.894557,0,0,26.83934,1,1,7975,996
2249,2023-01-20 10:49:57.493372,117484775,0,-0.0005152548,-0.001975652,-4.248861E-05,0.00730476,0.2158418,-9.879576,0,0,26.84116,1,1,7975,996
2264,2023-01-20 10:49:57.529407,117524411,0,-0.0001543159,-0.003782307,0.00137839,0.02026674,0.2082911,-9.878564,0,0,26.84264,1,1,7975,996
2281,2023-01-20 10:49:57.565900,117564552,0,-0.001614562,-0.003654733,0.001582418,0.01621304,0.2109182,-9.875082,0,0,26.84387,1,1,7975,996
2313,2023-01-20 10:49:57.602366,117604427,0,-0.002844423,-0.003695074,0.0005475878,0.01066679,0.2064817,-9.889743,0,0,26.845,1,1,7975,996
2325,2023-01-20 10:49:57.642338,117644407,0,-0.001140264,-0.003444188,0.0002444429,0.009046177,0.2158358,-9.89081,0,0,26.8464,1,1,7975,996
2365,2023-01-20 10:49:57.682632,117684710,0,-0.001741868,-0.004636482,0.001233057,-0.0001243167,0.2143397,-9.879457,0,0,26.84777,1,1,7975,996
2375,2023-01-20 10:49:57.722319,117724406,0,-0.001221864,-0.003805106,0.001291666,0.01835984,0.2075689,-9.886402,0,0,26.84894,1,1,7975,996
2391,2023-01-20 10:49:57.762456,117764552,0,-0.0006816465,-0.002928643,0.0006089282,0.01270341,0.2159071,-9.881354,0,0,26.85025,1,1,7975,996
2425,2023-01-20 10:49:57.802331,117804436,0,-0.001679633,-0.00330829,0.001981269,0.01511163,0.212563,-9.888,0,0,26.85138,1,1,7975,996
2430,2023-01-20 10:49:57.842321,117844438,0,-0.001830071,-0.002516288,0.001083808,0.01231754,0.2129488,-9.873945,0,0,26.85211,1,1,7975,996
2462,2023-01-20 10:49:57.882725,117884854,0,-0.002310497,-0.002883488,0.0007045223,0.005424241,0.2110553,-9.860514,0,0,26.85168,1,1,7975,996
2469,2023-01-20 10:49:57.922301,117924442,0,-0.001560803,-0.00318696,0.00101493,0.01419692,0.2113434,-9.895524,0,0,26.85138,1,1,7975,996
2481,2023-01-20 10:49:57.962403,117964556,0,-0.002198466,-0.003017423,-5.174183E-05,0.004850572,0.2034844,-9.887941,0,0,26.85218,1,1,7975,996
2510,2023-01-20 10:49:58.002258,118004420,0,-0.002578895,-0.003514169,0.000680385,0.01682708,0.2111973,-9.88787,0,0,26.85308,1,1,7975,996
2514,2023-01-20 10:49:58.042578,118044707,0,-0.001639838,-0.003170479,0.0002903921,0.007204397,0.2172445,-9.876539,0,0,26.85461,1,1,7975,996
2547,2023-01-20 10:49:58.082337,118084433,0,-0.001036542,-0.003270239,0.0005345621,0.01475795,0.2283381,-9.884055,0,0,26.85645,1,1,7975,996
2551,2023-01-20 10:49:58.122380,118124443,0,-0.002301756,-0.003140401,0.0008367879,0.005956254,0.204062,-9.876683,0,0,26.85832,1,1,7975,996
2562,2023-01-20 10:49:58.162528,118164558,0,-0.001527487,-0.002945424,0.001243514,0.01594561,0.2127484,-9.885612,0,0,26.86011,1,1,7975,996
2593,2023-01-20 10:49:58.202534,118204534,0,-0.002269864,-0.002930862,0.0009451069,0.02107924,0.2032612,-9.887506,0,0,26.86169,1,1,7975,996
2597,2023-01-20 10:49:58.242696,118244708,0,-0.0007646868,-0.003084738,0.000484925,0.002035422,0.2073536,-9.888105,0,0,26.86407,1,1,7975,996
2629,2023-01-20 10:49:58.282412,118284436,0,-0.001451037,-0.003018805,0.001301892,0.009846211,0.2164958,-9.875116,0,0,26.86637,1,1,7975,996
2633,2023-01-20 10:49:58.322418,118324454,0,0.0005939142,-0.002931142,0.004789501,-0.003662053,0.2047591,-9.890512,0,0,26.86868,1,1,7975,996
2644,2023-01-20 10:49:58.362504,118364553,0,0.006487969,0.005786134,0.006812251,-0.02455764,0.2197432,-9.885262,0,0,26.87093,1,1,7975,996
2671,2023-01-20 10:49:58.402395,118404455,0,-0.001079296,-0.003072898,0.03258169,-0.02825981,0.200747,-9.855085,0,0,26.87267,1,1,7975,996
2675,2023-01-20 10:49:58.442663,118444724,0,0.004204409,0.002910296,0.04981784,0.01252095,0.2256162,-9.881051,0,0,26.87391,1,1,7975,996
2707,2023-01-20 10:49:58.482397,118484459,0,-0.005097779,-0.0005828793,0.04055793,0.005114383,0.2596754,-9.885557,0,0,26.87477,1,1,7975,996
2711,2023-01-20 10:49:58.522370,118524432,0,-0.005851811,-0.005887183,-0.006974248,0.04347778,0.1980377,-9.888207,0,0,26.87519,1,1,7975,996
2724,2023-01-20 10:49:58.562493,118564556,0,-0.00665446,-0.008403648,-0.005742292,0.06753705,0.2214757,-9.875812,0,0,26.87495,1,1,7975,996
2752,2023-01-20 10:49:58.602378,118604443,0,-0.002626375,-0.005862944,-0.006939929,-0.004961547,0.2248369,-9.89293,0,0,26.8749,1,1,7975,996
2756,2023-01-20 10:49:58.642675,118644750,0,-0.0007808669,-0.006167688,-0.01672557,0.01203002,0.1497115,-9.873455,0,0,26.87557,1,1,7975,996
2790,2023-01-20 10:49:58.682332,118684418,0,-0.003954656,-0.005606295,-0.01493689,0.07260986,0.1280795,-9.900442,0,0,26.87612,1,1,7975,996
2795,2023-01-20 10:49:58.722342,118724439,0,-0.002958801,-0.003187777,0.009770614,0.04635802,0.2595569,-9.895217,0,0,26.8771,1,1,7975,996
2805,2023-01-20 10:49:58.762463,118764570,0,-0.0003552797,-0.000823991,0.03144914,-0.05099189,0.345228,-9.869394,0,0,26.8791,1,1,7975,996
2834,2023-01-20 10:49:58.802310,118804427,0,0.001305684,8.178417E-05,0.02353253,-0.06144083,0.2391561,-9.879634,0,0,26.88097,1,1,7975,996
2839,2023-01-20 10:49:58.842607,118844723,0,0.002121344,-0.006823581,-0.0004960657,0.02484622,0.08627257,-9.888773,0,0,26.88338,1,1,7975,996
2873,2023-01-20 10:49:58.882335,118884451,0,-0.0001969138,-0.001136389,-0.02778415,0.05220049,0.1178221,-9.885194,0,0,26.88531,1,1,7975,996
2877,2023-01-20 10:49:58.922372,118924487,0,-0.003062154,0.001447969,-0.03050666,0.02839884,0.2449004,-9.878997,0,0,26.88655,1,1,7975,996
2887,2023-01-20 10:49:58.962437,118964552,0,-0.004903582,-0.002346366,-0.01152602,0.02094431,0.3112163,-9.866415,0,0,26.88788,1,1,7975,996
2915,2023-01-20 10:49:59.002289,119004402,0,-0.005810302,-0.007750219,0.01505355,0.05922399,0.2638819,-9.907553,0,0,26.8889,1,1,7975,996
2919,2023-01-20 10:49:59.042744,119044847,0,-0.008884744,-0.01180962,0.04340526,0.08547443,0.2021847,-9.89444,0,0,26.88968,1,1,7975,996
2951,2023-01-20 10:49:59.082332,119084424,0,-0.01065286,-0.01790762,0.07243761,0.1315446,0.2189653,-9.901319,0,0,26.89071,1,1,7975,996
2955,2023-01-20 10:49:59.122364,119124445,0,-0.007540322,-0.02101306,0.1290835,0.1762298,0.3161893,-9.918083,0,0,26.89204,1,1,7975,996
2966,2023-01-20 10:49:59.162474,119164545,0,-0.01215795,-0.03300658,-0.03579364,0.09482613,0.2433843,-9.897572,0,0,26.8924,1,1,7975,996
2996,2023-01-20 10:49:59.202422,119204483,0,-0.01927047,0.003840285,0.002885533,0.1898203,0.1895563,-9.897026,0,0,26.89223,1,1,7975,996
2999,2023-01-20 10:49:59.242647,119244709,0,-0.01578781,-0.02064877,-0.04365662,-0.1108069,-0.02690681,-9.839731,0,0,26.8924,1,1,7975,996
3032,2023-01-20 10:49:59.282367,119284429,0,-0.009032991,-0.009273538,0.02616331,-0.08233488,0.1105351,-9.831372,0,0,26.89283,1,1,7975,996
3036,2023-01-20 10:49:59.322366,119324429,0,-0.001456978,-0.00207364,0.01253706,0.2490468,0.4009086,-9.913467,0,0,26.89361,1,1,7975,996
3046,2023-01-20 10:49:59.362495,119364558,0,-0.001406221,-0.00196026,-0.05265214,0.1113588,0.2552584,-9.957154,0,0,26.89409,1,1,7975,996
3074,2023-01-20 10:49:59.402390,119404454,0,-0.01053114,-0.01147241,0.01242322,-0.1329169,0.08591582,-9.851035,0,0,26.89479,1,1,7975,996
3078,2023-01-20 10:49:59.442651,119444717,0,-0.004415296,-0.005442876,0.01838169,0.07509173,0.1511418,-9.811641,0,0,26.89571,1,1,7975,996
3110,2023-01-20 10:49:59.482397,119484464,0,0.008442241,0.0008567991,-0.01871425,0.03728595,0.2814296,-9.935691,0,0,26.89614,1,1,7975,996
3114,2023-01-20 10:49:59.522361,119524430,0,-0.01331895,-0.007173678,0.01310747,-0.003068231,0.252265,-9.929296,0,0,26.89658,1,1,7975,996
3126,2023-01-20 10:49:59.562474,119564544,0,-0.01133192,-0.007394419,-0.01819714,0.09513947,0.1535039,-9.827902,0,0,26.89705,1,1,7975,996
3156,2023-01-20 10:49:59.602367,119604440,0,0.01071169,-0.002669631,-0.0124285,-0.0329449,0.1694038,-9.889429,0,0,26.89744,1,1,7975,996
3159,2023-01-20 10:49:59.642697,119644777,0,-0.007906127,0.01439527,0.05583983,-0.08685346,0.1945025,-9.91088,0,0,26.89829,1,1,7975,996
3192,2023-01-20 10:49:59.682328,119684415,0,-0.00750971,-0.01716075,-0.02496769,0.1632973,0.3259258,-9.885464,0,0,26.89919,1,1,7975,996
3196,2023-01-20 10:49:59.722340,119724435,0,0.007829341,-0.01059047,-0.0622126,0.05631972,0.1426243,-9.908144,0,0,26.90005,1,1,7975,996
3206,2023-01-20 10:49:59.762472,119764574,0,-0.000698181,0.0168109,0.07763496,-0.1674737,0.103774,-9.866155,0,0,26.90064,1,1,7975,996
3235,2023-01-20 10:49:59.802305,119804414,0,-0.01051937,-0.006799106,0.03037479,0.07366261,0.3281594,-9.84858,0,0,26.90144,1,1,7975,996
3240,2023-01-20 10:49:59.842623,119844734,0,0.00459649,-0.01604725,-0.08790442,0.1314173,0.2887561,-9.896881,0,0,26.90238,1,1,7975,996
3271,2023-01-20 10:49:59.882322,119884435,0,0.008732196,0.006138444,0.02957992,-0.1178735,0.04305546,-9.908756,0,0,26.90406,1,1,7975,996
3276,2023-01-20 10:49:59.922380,119924495,0,-0.01244706,0.005557474,0.06508783,-0.01148811,0.1966448,-9.836642,0,0,26.90605,1,1,7975,996
3285,2023-01-20 10:49:59.962437,119964554,0,-0.003771216,-0.01043057,-0.06188346,0.140491,0.3661177,-9.892976,0,0,26.90862,1,1,7975,996
3314,2023-01-20 10:50:00.002297,120004415,0,0.003985969,-0.009548162,-0.01735344,-0.06245272,0.1546053,-9.921437,0,0,26.91087,1,1,7975,996
3318,2023-01-20 10:50:00.042742,120044849,0,-0.01206469,0.0006712984,0.05094976,0.01285297,0.130401,-9.841765,0,0,26.91287,1,1,7975,996
3350,2023-01-20 10:50:00.082312,120084409,0,-0.003308091,0.001572213,4.827369E-05,0.07185877,0.3016555,-9.858591,0,0,26.91458,1,1,7975,996
3354,2023-01-20 10:50:00.122360,120124446,0,-0.003526056,-0.0100929,-0.007274445,-0.05865404,0.2253386,-9.9306,0,0,26.91621,1,1,7975,996
3363,2023-01-20 10:50:00.162475,120164550,0,-0.001281312,-0.01057935,0.009519429,0.05024534,0.2211334,-9.854977,0,0,26.91719,1,1,7975,996
3395,2023-01-20 10:50:00.202412,120204477,0,0.001331504,-6.894019E-05,-0.01104164,0.08133613,0.1563411,-9.862779,0,0,26.91774,1,1,7975,996
3399,2023-01-20 10:50:00.242639,120244707,0,-0.002191309,0.007945633,0.04451143,-0.1193163,0.1680954,-9.915312,0,0,26.91817,1,1,7975,996
3430,2023-01-20 10:50:00.282343,120284415,0,-0.01200186,-0.01387802,0.006340804,0.08568086,0.3469028,-9.87867,0,0,26.91804,1,1,7975,996
3434,2023-01-20 10:50:00.322365,120324440,0,0.007838781,-0.008632388,-0.04687119,0.1329237,0.2428041,-9.872468,0,0,26.91807,1,1,7975,996
3443,2023-01-20 10:50:00.362532,120364610,0,0.00070533,0.004292632,0.04086969,-0.1753651,0.01528079,-9.905523,0,0,26.9181,1,1,7975,996
3473,2023-01-20 10:50:00.402349,120404430,0,-0.002835497,0.009234628,0.05198657,-0.009409104,0.2760958,-9.847697,0,0,26.9179,1,1,7975,996
3477,2023-01-20 10:50:00.442652,120444730,0,-0.00442171,-0.01590458,-0.06569656,0.2166458,0.3801754,-9.910365,0,0,26.91748,1,1,7975,996
3509,2023-01-20 10:50:00.482350,120484425,0,0.007971266,-0.003762239,-0.03478389,-0.06951882,0.07282718,-9.919928,0,0,26.91796,1,1,7975,996
3513,2023-01-20 10:50:00.522367,120524439,0,-0.006350788,0.01533754,0.08357281,-0.1223619,0.1251853,-9.847001,0,0,26.9193,1,1,7975,996
3524,2023-01-20 10:50:00.562470,120564540,0,-0.004869203,-0.007801663,-0.009544698,0.1610841,0.3949716,-9.885681,0,0,26.92097,1,1,7975,996
3554,2023-01-20 10:50:00.602391,120604458,0,0.005652607,-0.01506398,-0.05706541,0.02133159,0.2223251,-9.937105,0,0,26.92315,1,1,7975,996
3558,2023-01-20 10:50:00.642675,120644747,0,0.0003604683,0.002472874,0.05478087,-0.1036432,0.03542166,-9.865261,0,0,26.92502,1,1,7975,996
3592,2023-01-20 10:50:00.682356,120684433,0,-0.01215998,0.008736246,0.02951217,0.09313911,0.2659676,-9.837082,0,0,26.92712,1,1,7975,996
3596,2023-01-20 10:50:00.722340,120724422,0,-0.01007581,-0.007930975,-0.03496708,0.05218625,0.2846363,-9.919703,0,0,26.92855,1,1,7975,996
3606,2023-01-20 10:50:00.762480,120764566,0,-0.001401938,-0.01496066,-0.003853607,-0.06008421,0.1794497,-9.914126,0,0,26.92955,1,1,7975,996
3635,2023-01-20 10:50:00.802341,120804432,0,-0.0007082414,0.002047127,0.007976824,0.1065422,0.1832283,-9.832816,0,0,26.9302,1,1,7975,996
3640,2023-01-20 10:50:00.842629,120844728,0,0.00651055,0.000498388,0.01521131,-0.01970533,0.2116339,-9.911885,0,0,26.93038,1,1,7975,996
3671,2023-01-20 10:50:00.882329,120884435,0,-0.01349216,-0.0106804,0.004663275,-0.04954581,0.2168608,-9.913047,0,0,26.92964,1,1,7975,996
3675,2023-01-20 10:50:00.922352,120924466,0,-0.007822934,-0.004482062,-0.04962225,0.148521,0.2598588,-9.854141,0,0,26.92915,1,1,7975,996
3684,2023-01-20 10:50:00.962480,120964601,0,0.004035155,-0.002251019,0.004327398,-0.07960742,0.1100801,-9.894958,0,0,26.92925,1,1,7975,996
3710,2023-01-20 10:50:01.002286,121004414,0,0.004728392,0.00720068,0.05712651,-0.08472682,0.1477483,-9.872339,0,0,26.9289,1,1,7975,996
3711,2023-01-20 10:50:01.042729,121044854,0,-0.008793663,-0.003746382,-0.0356032,0.1957148,0.4163711,-9.887712,0,0,26.92885,1,1,7975,996
3740,2023-01-20 10:50:01.082326,121084449,0,-0.006985228,-0.01410786,-0.05884654,0.04225046,0.1889154,-9.915476,0,0,26.92959,1,1,7975,996
3741,2023-01-20 10:50:01.122375,121124495,0,0.01522665,0.003701397,0.04501711,-0.1719822,0.002133433,-9.882988,0,0,26.93023,1,1,7975,996
3747,2023-01-20 10:50:01.162491,121164608,0,4.305847E-05,0.01179691,0.04310979,0.07867805,0.2939333,-9.82712,0,0,26.93028,1,1,7975,996
3775,2023-01-20 10:50:01.202370,121204486,0,-0.0114213,0.0006528652,-0.002797985,0.1339337,0.3417431,-9.938069,0,0,26.93083,1,1,7975,996
3776,2023-01-20 10:50:01.242678,121244816,0,-0.004810232,-0.02646569,-0.03311577,-0.03550383,0.1164589,-9.907043,0,0,26.93191,1,1,7975,996
3805,2023-01-20 10:50:01.282311,121284470,0,-0.02149547,-0.02855553,-0.03497963,-0.0516582,0.2232699,-9.877663,0,0,26.93289,1,1,7975,996
3806,2023-01-20 10:50:01.322321,121324502,0,0.002575131,-0.008877728,-0.03343665,0.0605844,0.206018,-9.864353,0,0,26.93376,1,1,7975,996
3812,2023-01-20 10:50:01.362421,121364624,0,0.003629322,-0.05110304,0.01370354,0.04453432,0.1426543,-9.898127,0,0,26.93451,1,1,7975,996
3838,2023-01-20 10:50:01.402285,121404507,0,0.03648512,-0.02260014,0.006043,0.04536759,0.2793983,-9.851946,0,0,26.93484,1,1,7975,996
3839,2023-01-20 10:50:01.442658,121444859,0,-0.08314097,0.09353174,-0.02077377,0.06901263,0.1239107,-9.935913,0,0,26.9349,1,1,7975,996
3867,2023-01-20 10:50:01.482281,121484462,0,0.06175956,-0.08192168,0.04311614,0.01863497,0.2810822,-9.873409,0,0,26.93459,1,1,7975,996
3869,2023-01-20 10:50:01.522382,121524542,0,0.04085384,-0.06076214,-0.01332291,-0.02731963,0.3426937,-9.838813,0,0,26.93452,1,1,7975,996
3877,2023-01-20 10:50:01.562471,121564610,0,0.04454993,-0.0135887,0.01835256,-0.09560848,0.3688059,-9.808229,0,0,26.9346,1,1,7975,996
3904,2023-01-20 10:50:01.602368,121604488,0,-0.03152661,-0.0004740007,0.005293434,0.08031907,0.1653752,-9.691833,0,0,26.93462,1,1,7975,996
3905,2023-01-20 10:50:01.642701,121644820,0,0.01408056,0.1334213,0.0301796,0.3061536,0.4396649,-9.834123,0,0,26.93442,1,1,7975,996
3935,2023-01-20 10:50:01.682393,121684511,0,-0.06615186,0.007328104,-0.08078358,0.5605645,0.2205229,-10.10736,0,0,26.93499,1,1,7975,996
3937,2023-01-20 10:50:01.722369,121724487,0,0.04111425,0.0433299,-0.07763714,0.02987215,0.2599658,-9.77866,0,0,26.93547,1,1,7975,996
3943,2023-01-20 10:50:01.762508,121764625,0,-0.02615889,-0.02760037,0.0377434,0.09730709,0.009492142,-9.729016,0,0,26.936,1,1,7975,996
3969,2023-01-20 10:50:01.803916,121806035,0,-0.05851167,-0.01904321,0.1611005,-0.0433667,0.09236556,-10.16877,0,0,26.93659,1,1,7975,996
3971,2023-01-20 10:50:01.842365,121844513,0,0.02506816,0.09738205,0.1663507,-0.2081112,0.04749399,-10.08862,0,0,26.93652,1,1,7975,996
3999,2023-01-20 10:50:01.882310,121884488,0,0.08017062,0.04427881,0.1300405,-0.07995289,-0.02423057,-10.21803,0,0,26.93616,1,1,7975,996
4001,2023-01-20 10:50:01.922291,121924499,0,0.1194,-0.02595409,0.08650087,0.000835968,0.04557233,-10.85716,0,0,26.93632,1,1,7975,996
4008,2023-01-20 10:50:01.962384,121964622,0,0.1499406,0.03058547,0.05489685,0.02969014,-0.00987392,-11.43281,0,0,26.93688,1,1,7975,996
4034,2023-01-20 10:50:02.003777,122006041,0,0.1650082,0.1510875,0.03171903,-0.03273244,-0.02176453,-11.90819,0,0,26.9373,1,1,7975,996
4035,2023-01-20 10:50:02.042248,122044487,0,0.07676619,0.02826048,0.0513689,0.05752546,-0.09705167,-12.34174,0,0,26.93801,1,1,7975,996
4063,2023-01-20 10:50:02.082284,122084497,0,0.06978167,-0.05493179,0.05232039,0.07058889,0.02514252,-11.92898,0,0,26.939,1,1,7975,996
4065,2023-01-20 10:50:02.122364,122124550,0,0.1993933,-0.166691,0.01729577,0.1033469,0.1293117,-11.40304,0,0,26.94096,1,1,7975,996
4071,2023-01-20 10:50:02.162464,122164624,0,0.1444468,-0.1702286,-0.008459608,-0.02751354,-0.01917157,-10.8229,0,0,26.94324,1,1,7975,996
4099,2023-01-20 10:50:02.203881,122206016,0,0.01003871,-0.1625827,-0.006825991,-0.009733425,-0.1275583,-10.2736,0,0,26.94517,1,1,7975,996
4100,2023-01-20 10:50:02.242349,122244485,0,-0.120699,-0.1943249,-0.008785321,-0.007009886,-0.1385123,-9.843576,0,0,26.94748,1,1,7975,996
4128,2023-01-20 10:50:02.282388,122284525,0,-0.1107156,-0.1953941,0.002835026,0.09373607,-0.1124795,-9.64249,0,0,26.94959,1,1,7975,996
4130,2023-01-20 10:50:02.322365,122324502,0,-0.07342338,-0.1571233,-0.006096199,0.09369895,-0.06181865,-9.446646,0,0,26.95159,1,1,7975,996
4136,2023-01-20 10:50:02.362485,122364623,0,-0.01291388,-0.17119,0.009413392,0.2782929,0.05385674,-9.372287,0,0,26.9531,1,1,7975,996
4162,2023-01-20 10:50:02.404822,122406980,0,0.08056562,-0.1734592,0.04748803,0.2770642,0.08959097,-9.424004,0,0,26.95505,1,1,7975,996
4163,2023-01-20 10:50:02.444635,122446952,0,0.01800516,-0.1967163,0.05227139,0.3756751,-0.0505713,-9.321835,0,0,26.95639,1,1,7975,996
4191,2023-01-20 10:50:02.484444,122486920,0,-0.07363646,-0.1118853,0.05451337,0.2990894,-0.06930709,-9.155831,0,0,26.95792,1,1,7975,996
4193,2023-01-20 10:50:02.524997,122527635,0,-0.1519745,-0.08286985,0.08548447,0.2942113,-0.1455845,-9.266571,0,0,26.95965,1,1,7975,996
4224,2023-01-20 10:50:02.564669,122567465,0,-0.1717036,0.1148722,0.06425334,0.05236366,-0.2412907,-9.178274,0,0,26.96132,1,1,7975,996
4229,2023-01-20 10:50:02.604016,122606952,0,-0.06128385,0.07888929,0.06673875,0.02029116,-0.06042099,-9.122994,0,0,26.96248,1,1,7975,996
4230,2023-01-20 10:50:02.644000,122646921,0,-0.04181594,0.05809997,0.07485922,-0.08838585,-0.1042253,-9.104607,0,0,26.96401,1,1,7975,996
4260,2023-01-20 10:50:02.684019,122686925,0,-0.02798641,-0.009705456,0.09583309,-0.01198826,0.02405696,-9.106855,0,0,26.96538,1,1,7975,996
4262,2023-01-20 10:50:02.724787,122727678,0,-0.08112277,0.09536155,0.08416392,-0.009099785,-0.2177272,-9.272081,0,0,26.96743,1,1,7975,996
4290,2023-01-20 10:50:02.764547,122767423,0,0.02926465,0.1583786,0.06854811,-0.03632784,-0.1041013,-9.133567,0,0,26.96928,1,1,7975,996
4294,2023-01-20 10:50:02.804049,122806913,0,0.1109112,0.2009872,0.04917109,-0.05619035,-0.1330671,-9.432377,0,0,26.97082,1,1,7975,996
4296,2023-01-20 10:50:02.844063,122846937,0,0.06333186,0.15856,0.02272302,-0.1540844,-0.1622989,-9.322991,0,0,26.97276,1,1,7975,996
4325,2023-01-20 10:50:02.884066,122886950,0,-0.007000505,0.03904232,0.02957016,-0.0340227,-0.08343798,-9.602022,0,0,26.97578,1,1,7975,996
4327,2023-01-20 10:50:02.924779,122927673,0,-0.05911537,-0.01768284,0.01620551,-0.02076926,-0.1882792,-9.608819,0,0,26.97824,1,1,7975,996
4355,2023-01-20 10:50:02.964496,122967400,0,-0.03740491,-0.07468129,-0.009978782,0.1035455,-0.1520457,-9.476961,0,0,26.98012,1,1,7975,996
4359,2023-01-20 10:50:03.004010,123006923,0,-0.03654793,-0.05195699,-0.009728822,0.09450542,-0.2856083,-9.67362,0,0,26.9813,1,1,7975,996
4360,2023-01-20 10:50:03.044035,123046949,0,0.00791207,0.02549516,-0.05658428,-0.03996774,-0.2387652,-9.685084,0,0,26.9828,1,1,7975,996
4388,2023-01-20 10:50:03.084037,123086952,0,0.09954531,0.06554491,-0.0638959,-0.1175679,-0.02866249,-9.761246,0,0,26.98422,1,1,7975,996
4390,2023-01-20 10:50:03.124756,123127671,0,0.1776514,0.09810904,-0.04734545,-0.09458625,0.006618449,-9.85628,0,0,26.98562,1,1,7975,996
4420,2023-01-20 10:50:03.164592,123167508,0,0.2030075,0.1762912,-0.06051644,-0.1657575,-0.06286404,-9.814711,0,0,26.98737,1,1,7975,996
4424,2023-01-20 10:50:03.204009,123206926,0,0.1675362,0.153644,-0.05887131,-0.1422667,-0.02955541,-9.706204,0,0,26.98882,1,1,7975,996
4425,2023-01-20 10:50:03.244021,123246936,0,0.07747383,0.10149,-0.02319426,-0.05752969,-0.1497369,-9.77872,0,0,26.98969,1,1,7975,996
4453,2023-01-20 10:50:03.284009,123286921,0,0.06498256,0.1347319,-0.01744422,-0.08310986,-0.123736,-9.65681,0,0,26.99068,1,1,7975,996
4455,2023-01-20 10:50:03.324800,123327710,0,0.1132762,0.05331855,0.01946334,-0.1168875,-0.01582059,-9.826275,0,0,26.99135,1,1,7975,996
4483,2023-01-20 10:50:03.364509,123367417,0,0.1035098,0.06740962,0.04736403,-0.1155685,-0.1251374,-10.20905,0,0,26.99261,1,1,7975,996
4487,2023-01-20 10:50:03.404020,123406925,0,0.07941648,0.1103099,0.04132623,-0.2678757,-0.1773203,-10.15951,0,0,26.9944,1,1,7975,996
4488,2023-01-20 10:50:03.444041,123446941,0,0.06959121,0.09914266,0.04327227,-0.2385428,-0.08437479,-10.08298,0,0,26.99697,1,1,7975,996
4516,2023-01-20 10:50:03.484085,123486980,0,0.04801142,0.1038384,0.06655593,-0.1614792,-0.1169868,-10.1797,0,0,26.99973,1,1,7975,996
4518,2023-01-20 10:50:03.524773,123527662,0,0.06087503,0.1129055,0.07690708,-0.2048131,-0.1095202,-9.9379,0,0,27.00277,1,1,7975,996
4548,2023-01-20 10:50:03.564504,123567388,0,0.0712589,0.02806499,0.1080103,-0.09861817,-0.04968469,-10.06547,0,0,27.00583,1,1,7975,996
4553,2023-01-20 10:50:03.604061,123606940,0,0.05557315,-0.07672293,0.1260434,-0.01352569,-0.1760586,-10.18549,0,0,27.00875,1,1,7975,996
4554,2023-01-20 10:50:03.644103,123646984,0,0.06545635,-0.07259551,0.1060058,-0.06124566,-0.05202101,-10.06773,0,0,27.01089,1,1,7975,996
4584,2023-01-20 10:50:03.684055,123686937,0,0.0478696,-0.01481088,0.09001465,-0.1324121,-0.03013648,-10.40511,0,0,27.01303,1,1,7975,996
4586,2023-01-20 10:50:03.724760,123727643,0,-0.04400797,0.1910858,0.08625598,-0.2131878,-0.1650339,-10.86792,0,0,27.01496,1,1,7975,996
4614,2023-01-20 10:50:03.764549,123767434,0,-0.06239315,0.1567738,0.08889005,-0.0797178,-0.2071674,-10.70193,0,0,27.01696,1,1,7975,996
4618,2023-01-20 10:50:03.804102,123806975,0,0.029,-0.07877798,0.05705325,0.1075016,-0.04864942,-10.57495,0,0,27.01921,1,1,7975,996
4620,2023-01-20 10:50:03.844194,123846943,0,-0.09866979,-0.03182588,0.03667784,-0.04231869,-0.1503429,-10.89753,0,0,27.0214,1,1,7975,996
4650,2023-01-20 10:50:03.884296,123886920,0,-0.1619268,-0.01167552,0.08480328,0.041792,-0.2306054,-10.88482,0,0,27.02368,1,1,7975,996
4652,2023-01-20 10:50:03.924874,123927372,0,-0.1408837,-0.1320644,0.04213849,0.09207194,-0.2266481,-10.67957,0,0,27.02552,1,1,7975,996
4680,2023-01-20 10:50:03.965070,123967443,0,-0.155141,-0.06027818,0.0009346797,0.00143516,-0.2347012,-10.80889,0,0,27.02756,1,1,7975,996
4683,2023-01-20 10:50:04.004672,124006934,0,-0.2041865,0.05996789,0.01824337,-0.06502895,-0.2148271,-10.80214,0,0,27.02996,1,1,7975,996
4685,2023-01-20 10:50:04.044689,124046924,0,-0.2240336,-0.1260189,-0.03910326,0.1685037,-0.2313795,-10.75949,0,0,27.0326,1,1,7975,996
4713,2023-01-20 10:50:04.085074,124087282,0,-0.4171936,0.003248065,-0.09013742,-0.002950871,-0.454511,-10.8703,0,0,27.0355,1,1,7975,996
4715,2023-01-20 10:50:04.125181,124127362,0,-0.3322421,0.2096728,-0.0773043,-0.2482645,-0.1937064,-10.48818,0,0,27.03909,1,1,7975,996
4745,2023-01-20 10:50:04.165282,124167435,0,-0.2403266,0.04423277,-0.09316106,-0.004149621,-0.02888986,-10.18032,0,0,27.04355,1,1,7975,996
4748,2023-01-20 10:50:04.204794,124206924,0,-0.2659201,0.004193652,-0.1002873,0.06882347,-0.1606866,-10.20322,0,0,27.04746,1,1,7975,996
4750,2023-01-20 10:50:04.244804,124246936,0,-0.2832389,0.05790041,-0.1148195,-0.04981932,-0.1575409,-10.05208,0,0,27.051,1,1,7975,996
4778,2023-01-20 10:50:04.285126,124287260,0,-0.242508,-0.006151466,-0.1014881,-0.02330001,-0.128208,-10.0922,0,0,27.05504,1,1,7975,996
4780,2023-01-20 10:50:04.325232,124327367,0,-0.2261209,-0.06953817,-0.08792938,-0.05030468,-0.2178642,-10.01873,0,0,27.05991,1,1,7975,996
4808,2023-01-20 10:50:04.365288,124367425,0,-0.07355846,-0.07908234,-0.06976567,-0.1677447,-0.008971783,-9.698824,0,0,27.06483,1,1,7975,996
4811,2023-01-20 10:50:04.404834,124406975,0,-0.08192021,-0.09977378,-0.05018469,-0.08735697,-0.02624426,-9.64707,0,0,27.06854,1,1,7975,996
4813,2023-01-20 10:50:04.444786,124446943,0,-0.1123292,-0.08558148,-0.05189024,-0.02501798,-0.1180143,-9.572855,0,0,27.07183,1,1,7975,996
4841,2023-01-20 10:50:04.485085,124487258,0,0.07670032,-0.1303128,-0.06396262,0.05842496,0.1193975,-9.477718,0,0,27.07483,1,1,7975,996
4843,2023-01-20 10:50:04.525204,124527393,0,0.09137584,-0.09326742,-0.06159856,0.1188015,-0.0427722,-9.706398,0,0,27.07726,1,1,7975,996
4874,2023-01-20 10:50:04.565201,124567406,0,0.1163369,0.01040317,-0.07243875,-0.01783967,-0.1096679,-9.625528,0,0,27.08038,1,1,7975,996
4878,2023-01-20 10:50:04.604732,124606949,0,0.1917688,0.07698913,-0.06747129,0.0810321,-0.09296686,-9.650728,0,0,27.08414,1,1,7975,996
4880,2023-01-20 10:50:04.644734,124646934,0,0.2051893,0.05166018,-0.06490847,0.2544664,-0.1383229,-9.736034,0,0,27.08826,1,1,7975,996
4910,2023-01-20 10:50:04.685084,124687267,0,0.1713846,0.04100236,-0.08484497,0.2950402,-0.1994129,-9.797594,0,0,27.0924,1,1,7975,996
4912,2023-01-20 10:50:04.725212,124727378,0,0.1349297,-0.01244036,-0.1210867,0.3097462,-0.1667681,-9.750902,0,0,27.09627,1,1,7975,996
4940,2023-01-20 10:50:04.765277,124767426,0,0.1145505,-0.08735578,-0.1438332,0.3296029,-0.1266242,-9.808969,0,0,27.09997,1,1,7975,996
4943,2023-01-20 10:50:04.804803,124806939,0,0.1180052,-0.095036,-0.151459,0.2951812,-0.08463428,-9.982087,0,0,27.10407,1,1,7975,996
4946,2023-01-20 10:50:04.845132,124847287,0,0.08659946,-0.09478863,-0.1448959,0.2691329,-0.09802698,-10.06192,0,0,27.10768,1,1,7975,996
4974,2023-01-20 10:50:04.884731,124886905,0,-0.01823264,-0.07123709,-0.08788149,0.2853329,-0.1811413,-10.0307,0,0,27.11138,1,1,7975,996
4976,2023-01-20 10:50:04.925193,124927386,0,-0.1312213,-0.02410799,-0.03893435,0.2315334,-0.2670906,-10.01472,0,0,27.11526,1,1,7975,996
5004,2023-01-20 10:50:04.965193,124967405,0,-0.1792509,-0.02581418,0.02472874,0.2361353,-0.1966822,-10.13859,0,0,27.11899,1,1,7975,996
5007,2023-01-20 10:50:05.004708,125006935,0,-0.1715352,-0.07530923,0.08379144,0.2445666,-0.1625817,-10.07643,0,0,27.12281,1,1,7975,996
5009,2023-01-20 10:50:05.045080,125047287,0,-0.1144673,-0.05846927,0.1164058,0.1080544,-0.0995876,-9.932516,0,0,27.12695,1,1,7975,996
5037,2023-01-20 10:50:05.084743,125086931,0,-0.08000408,-0.05264989,0.1386929,0.08434042,-0.0534819,-9.742622,0,0,27.13114,1,1,7975,996
5039,2023-01-20 10:50:05.125198,125127366,0,-0.06733542,-0.07251477,0.1678697,0.1611191,-0.04589642,-9.85533,0,0,27.13488,1,1,7975,996
5069,2023-01-20 10:50:05.165277,125167426,0,-0.1312292,-0.05541477,0.1797279,0.1771589,-0.1889267,-9.974488,0,0,27.13956,1,1,7975,996
5072,2023-01-20 10:50:05.204815,125206947,0,-0.1053605,-0.01916177,0.1688943,0.1455744,-0.1951967,-9.777075,0,0,27.14394,1,1,7975,996
5074,2023-01-20 10:50:05.245129,125247263,0,-0.01439301,-0.06725086,0.1707245,0.2047156,-0.07189774,-9.858078,0,0,27.1475,1,1,7975,996
5102,2023-01-20 10:50:05.284782,125286918,0,0.04992776,-0.176685,0.1649847,0.3278821,-0.07648402,-9.923452,0,0,27.15138,1,1,7975,996
5104,2023-01-20 10:50:05.325227,125327365,0,0.03000771,-0.07594579,0.1109417,0.1497824,-0.1927414,-9.948071,0,0,27.15569,1,1,7975,996
5132,2023-01-20 10:50:05.365632,125367772,0,0.02806992,0.01959919,0.06394312,0.05602283,-0.1724566,-9.920655,0,0,27.15939,1,1,7975,996
5135,2023-01-20 10:50:05.406356,125408497,0,0.06978024,0.01863975,0.06638201,0.1614679,-0.1253621,-10.01677,0,0,27.16264,1,1,7975,996
5137,2023-01-20 10:50:05.444787,125446923,0,0.08154887,0.09562191,0.04211964,0.1014284,-0.2109439,-9.838684,0,0,27.16572,1,1,7975,996
5165,2023-01-20 10:50:05.484786,125486916,0,0.1380167,0.05660285,-0.007736581,0.1037615,-0.06334465,-9.568568,0,0,27.16905,1,1,7975,996
5167,2023-01-20 10:50:05.525239,125527364,0,0.08105566,-0.01527475,-0.04198772,0.1497182,-0.07237229,-9.57468,0,0,27.17267,1,1,7975,996
5197,2023-01-20 10:50:05.565291,125567410,0,0.08956449,0.004543229,-0.08246687,0.06487068,-0.06527866,-9.416805,0,0,27.17671,1,1,7975,996
5202,2023-01-20 10:50:05.606388,125608502,0,0.06674107,-0.1236393,-0.1015182,0.1682862,-0.02153727,-9.555307,0,0,27.17998,1,1,7975,996
5204,2023-01-20 10:50:05.644834,125646947,0,-0.00267758,-0.1697348,-0.1168395,0.1319394,-0.1038015,-9.568553,0,0,27.1829,1,1,7975,996
5234,2023-01-20 10:50:05.684813,125686925,0,0.03089112,-0.2321532,-0.1187628,0.1869115,0.004756287,-9.451861,0,0,27.18627,1,1,7975,996
5236,2023-01-20 10:50:05.725262,125727373,0,0.02414127,-0.3107511,-0.1215153,0.4026757,-0.007938473,-9.544349,0,0,27.1897,1,1,7975,996
5264,2023-01-20 10:50:05.765597,125767707,0,0.02831501,-0.2919348,-0.1352298,0.4867153,-0.08539475,-9.517078,0,0,27.19259,1,1,7975,996
5267,2023-01-20 10:50:05.804353,125806896,0,0.05270331,-0.2435291,-0.1417503,0.3951944,-0.08075716,-9.363804,0,0,27.19534,1,1,7975,996
5270,2023-01-20 10:50:05.840758,125846935,0,0.09941385,-0.1658201,-0.1521464,0.2326469,0.01667258,-9.480911,0,0,27.19851,1,1,7975,996
5298,2023-01-20 10:50:05.877124,125886930,0,0.1707043,-0.04334129,-0.1665445,0.1529878,0.01056447,-9.435365,0,0,27.20182,1,1,7975,996
5299,2023-01-20 10:50:05.913888,125927363,0,0.2112524,0.0456782,-0.1754002,0.1496522,-0.03178715,-9.48906,0,0,27.20546,1,1,7975,996
5328,2023-01-20 10:50:05.950546,125967680,0,0.08202562,0.0425622,-0.1888687,0.2205689,-0.1401971,-9.390981,0,0,27.20921,1,1,7975,996
5329,2023-01-20 10:50:05.986214,126006908,0,0.01143591,0.02829662,-0.1910592,0.3775643,-0.1091326,-9.385416,0,0,27.21245,1,1,7975,996
5333,2023-01-20 10:50:06.024891,126046952,0,-0.03770863,-0.1068663,-0.2000814,0.4541549,-0.03787838,-9.591902,0,0,27.21572,1,1,7975,996
5361,2023-01-20 10:50:06.064945,126086991,0,-0.02122241,-0.127019,-0.2057926,0.471603,-0.1112729,-9.730073,0,0,27.21939,1,1,7975,996
5362,2023-01-20 10:50:06.105568,126127600,0,-0.07262053,-0.1103982,-0.1986949,0.5062692,-0.1738846,-9.538344,0,0,27.22365,1,1,7975,996
5393,2023-01-20 10:50:06.145411,126167429,0,-0.00394348,-0.02348597,-0.1831236,0.3812766,-0.04346405,-9.361991,0,0,27.22797,1,1,7975,996
5394,2023-01-20 10:50:06.184935,126206938,0,0.02600428,-0.05932198,-0.1661046,0.3472337,-0.04360766,-9.377481,0,0,27.23246,1,1,7975,996
5398,2023-01-20 10:50:06.224639,126246945,0,-0.04672318,-0.08421278,-0.1458176,0.4861478,-0.06935403,-9.44627,0,0,27.23706,1,1,7975,996
5426,2023-01-20 10:50:06.264117,126286917,0,-0.09753169,-0.03736721,-0.1029839,0.4282661,-0.02192588,-9.53396,0,0,27.24181,1,1,7975,996
5429,2023-01-20 10:50:06.303951,126327249,0,-0.1085133,-0.0192486,-0.02983052,0.2857298,0.08280797,-9.307481,0,0,27.24628,1,1,7975,996
5458,2023-01-20 10:50:06.343884,126367681,0,-0.08806757,0.0400941,0.04278102,0.1622053,0.04151233,-9.524463,0,0,27.25043,1,1,7975,996
5459,2023-01-20 10:50:06.382682,126406964,0,-0.1410511,-0.01321322,0.09902762,0.4891176,0.05917615,-9.439083,0,0,27.25365,1,1,7975,996
5463,2023-01-20 10:50:06.422433,126446935,0,-0.1349094,0.05458143,0.1190149,0.2976834,0.1571366,-9.433464,0,0,27.25645,1,1,7975,996
5491,2023-01-20 10:50:06.462417,126486923,0,-0.119391,0.05869245,0.1338864,0.1591376,0.02762106,-9.243491,0,0,27.25947,1,1,7975,996
5492,2023-01-20 10:50:06.502776,126527287,0,-0.2501526,-0.07778262,0.1641277,0.2840908,-0.04113938,-8.968894,0,0,27.26274,1,1,7975,996
5523,2023-01-20 10:50:06.542893,126567409,0,-0.1654019,-0.1094218,0.1544494,0.2816879,0.1906611,-9.103452,0,0,27.26602,1,1,7975,996
5524,2023-01-20 10:50:06.582381,126606902,0,-0.05941653,-0.1663962,0.127926,0.3168193,0.09680903,-9.557393,0,0,27.26917,1,1,7975,996
5529,2023-01-20 10:50:06.622387,126646925,0,0.04349006,-0.1642744,0.1088962,0.3498007,0.09330071,-9.703343,0,0,27.27317,1,1,7975,996
5559,2023-01-20 10:50:06.662359,126686922,0,0.0154233,-0.08916498,0.07911979,0.2668274,-0.004821299,-9.664443,0,0,27.27738,1,1,7975,996
5560,2023-01-20 10:50:06.702659,126727248,0,0.07996133,-0.03347146,0.01220093,0.1783694,-0.02719695,-9.628641,0,0,27.28201,1,1,7975,996
5589,2023-01-20 10:50:06.742801,126767416,0,0.2023502,-0.05664053,-0.02408265,0.4519998,0.06845756,-9.465871,0,0,27.28661,1,1,7975,996
5590,2023-01-20 10:50:06.782301,126806942,0,0.1572107,-0.08204874,-0.04851314,0.5394744,0.02109936,-9.443232,0,0,27.29037,1,1,7975,996
5595,2023-01-20 10:50:06.822263,126846935,0,0.07038262,-0.02185279,-0.09017964,0.4482462,-0.3102792,-9.45638,0,0,27.29301,1,1,7975,996
5623,2023-01-20 10:50:06.862515,126887223,0,0.1919801,0.1414153,-0.1208291,0.3134741,-0.1905611,-9.071886,0,0,27.29537,1,1,7975,996
5624,2023-01-20 10:50:06.902233,126926977,0,0.4073413,0.1811206,-0.1628151,0.2942091,0.004712314,-8.972301,0,0,27.29752,1,1,7975,996
5653,2023-01-20 10:50:06.942641,126967421,0,0.3253708,0.08545563,-0.1818856,0.4701817,-0.07535054,-9.023811,0,0,27.30022,1,1,7975,996
5654,2023-01-20 10:50:06.982082,127006897,0,0.1002478,0.02639521,-0.176735,0.4158126,-0.07721877,-8.974336,0,0,27.30236,1,1,7975,996
5658,2023-01-20 10:50:07.022112,127046947,0,0.05524676,-0.03052888,-0.1630977,0.2395797,-0.06266721,-9.406315,0,0,27.30413,1,1,7975,996
5686,2023-01-20 10:50:07.062437,127087279,0,0.05053089,-0.08937038,-0.1089127,0.4622515,-0.07475153,-9.339212,0,0,27.30602,1,1,7975,996
5687,2023-01-20 10:50:07.102082,127126931,0,-0.08650914,-0.1321312,-0.08666856,0.5371302,-0.08834784,-9.434691,0,0,27.30863,1,1,7975,996
5718,2023-01-20 10:50:07.142559,127167416,0,-0.1804814,-0.07570289,-0.078573,0.4824603,-0.2255996,-9.473901,0,0,27.31157,1,1,7975,996
5719,2023-01-20 10:50:07.182086,127206950,0,-0.1865635,-0.08730304,-0.02806347,0.4710912,-0.2395681,-9.245261,0,0,27.31425,1,1,7975,996
5723,2023-01-20 10:50:07.222086,127246939,0,-0.1033798,-0.1085199,0.001730212,0.374774,-0.1704311,-9.386652,0,0,27.31717,1,1,7975,996
5751,2023-01-20 10:50:07.262414,127287241,0,-0.1588251,-0.1497077,0.0321664,0.5786759,-0.1793266,-9.178199,0,0,27.31995,1,1,7975,996
5752,2023-01-20 10:50:07.302117,127326920,0,-0.133573,0.006160132,0.02210636,0.3522164,-0.09220086,-9.37029,0,0,27.32291,1,1,7975,996
5781,2023-01-20 10:50:07.342909,127367686,0,-0.1643406,0.05389529,0.0216952,0.2976842,-0.2293285,-9.650008,0,0,27.32592,1,1,7975,996
5782,2023-01-20 10:50:07.382173,127406925,0,-0.08789803,0.1413148,0.02903776,0.2041095,-0.0675316,-9.608448,0,0,27.32892,1,1,7975,996
5786,2023-01-20 10:50:07.422182,127446942,0,-0.0101935,0.1464044,0.0190744,0.1299681,-0.09954127,-9.658608,0,0,27.33186,1,1,7975,996
5814,2023-01-20 10:50:07.462477,127487272,0,0.1293922,0.1117297,0.03392393,0.188864,-0.01212088,-9.391461,0,0,27.33487,1,1,7975,996
5815,2023-01-20 10:50:07.502075,127526904,0,0.1223267,0.122928,0.0271323,0.2266713,-0.04591031,-9.424762,0,0,27.3381,1,1,7975,996
5846,2023-01-20 10:50:07.542533,127567397,0,0.04255876,0.1224989,0.008424434,0.2179942,-0.09797587,-9.395791,0,0,27.34146,1,1,7975,996
5847,2023-01-20 10:50:07.582069,127606968,0,-0.001302863,0.1063388,0.004360396,0.2080894,-0.1055983,-9.33306,0,0,27.34478,1,1,7975,996
5852,2023-01-20 10:50:07.624499,127646931,0,-0.002706495,0.09990099,0.00933737,0.20237,-0.04544238,-9.337089,0,0,27.34781,1,1,7975,996
5882,2023-01-20 10:50:07.669334,127687224,0,0.09281901,0.04568127,-0.004113841,0.1699727,0.02755585,-9.529213,0,0,27.35024,1,1,7975,996
5883,2023-01-20 10:50:07.713513,127726927,0,0.113335,-0.01915629,0.003716557,0.3603897,-0.08201355,-9.668307,0,0,27.35275,1,1,7975,996
5912,2023-01-20 10:50:07.758553,127767404,0,0.1711305,-0.06736788,0.0269251,0.3788497,0.05223937,-9.538034,0,0,27.35524,1,1,7975,996
5915,2023-01-20 10:50:07.802060,127806921,0,0.1216894,-0.05300583,0.01838938,0.3899787,-0.02006109,-9.62212,0,0,27.35741,1,1,7975,996
5918,2023-01-20 10:50:07.838383,127846930,0,0.01521038,-0.09854532,0.008204929,0.3775555,-0.1714399,-9.881144,0,0,27.35973,1,1,7975,996
5946,2023-01-20 10:50:07.875007,127887271,0,-0.03525571,-0.1741385,0.02342747,0.369423,-0.220474,-9.944615,0,0,27.36139,1,1,7975,996
5948,2023-01-20 10:50:07.911001,127926917,0,-0.01796549,-0.1901683,0.03726517,0.4177928,-0.107475,-9.901061,0,0,27.36271,1,1,7975,996
5978,2023-01-20 10:50:07.947776,127967424,0,-0.054734,-0.1277029,0.04819814,0.3964914,-0.103753,-9.888323,0,0,27.36364,1,1,7975,996
5979,2023-01-20 10:50:07.983706,128007000,0,-0.08366718,-0.1145354,0.03956119,0.4058461,-0.1925889,-10.20773,0,0,27.36495,1,1,7975,996
5983,2023-01-20 10:50:08.021999,128046951,0,-0.02626584,-0.09693963,0.04047916,0.4302976,-0.2159841,-10.16252,0,0,27.36685,1,1,7975,996
6011,2023-01-20 10:50:08.062298,128087257,0,0.04542738,-0.03551484,0.06360275,0.3057985,-0.08921867,-10.07444,0,0,27.36995,1,1,7975,996
6012,2023-01-20 10:50:08.101949,128126916,0,0.07153238,0.0878576,0.06114987,0.2153044,-0.05938878,-10.03671,0,0,27.374,1,1,7975,996
6043,2023-01-20 10:50:08.142507,128167481,0,0.1144005,0.1462136,0.04394271,0.2097987,-0.06941149,-10.02272,0,0,27.37842,1,1,7975,996
6044,2023-01-20 10:50:08.182016,128206998,0,0.09690852,0.1548008,0.06237511,0.2240699,-0.1656624,-9.881536,0,0,27.38333,1,1,7975,996
6048,2023-01-20 10:50:08.221951,128246927,0,0.1111307,0.2222098,0.09969763,0.1983178,-0.1347047,-9.797893,0,0,27.38878,1,1,7975,996
6076,2023-01-20 10:50:08.262285,128287244,0,0.1459276,0.2816731,0.1332927,0.2601819,-0.04919169,-9.932975,0,0,27.39365,1,1,7975,996
6077,2023-01-20 10:50:08.301967,128326909,0,0.1353487,0.3106391,0.1564308,0.2766398,-0.02817148,-9.976277,0,0,27.39844,1,1,7975,996
6106,2023-01-20 10:50:08.342777,128367702,0,0.06985756,0.224122,0.1638972,0.3187754,-0.1061748,-9.981854,0,0,27.4032,1,1,7975,996
6107,2023-01-20 10:50:08.382061,128406969,0,0.03804931,0.1803388,0.1646743,0.3769143,-0.1713695,-10.00946,0,0,27.40741,1,1,7975,996
6110,2023-01-20 10:50:08.422079,128446981,0,0.02049608,0.06838632,0.1545571,0.3635373,-0.1943114,-9.962534,0,0,27.41083,1,1,7975,996
6139,2023-01-20 10:50:08.462327,128487232,0,-0.006863825,-0.02322394,0.1390112,0.3221956,-0.2160936,-9.880863,0,0,27.41404,1,1,7975,996
6140,2023-01-20 10:50:08.502012,128526920,0,-0.04162279,-0.1073,0.1124577,0.304043,-0.234383,-9.759205,0,0,27.41679,1,1,7975,996
6171,2023-01-20 10:50:08.542494,128567404,0,-0.06687148,-0.1470503,0.08536064,0.2549194,-0.2123976,-9.87018,0,0,27.41903,1,1,7975,996
6172,2023-01-20 10:50:08.582083,128606996,0,-0.0654557,-0.1873333,0.06673657,0.2490206,-0.1690703,-9.935344,0,0,27.42134,1,1,7975,996
6176,2023-01-20 10:50:08.622015,128646931,0,-0.06186094,-0.1439011,0.04813205,0.1623091,-0.161921,-10.0902,0,0,27.42356,1,1,7975,996
6207,2023-01-20 10:50:08.662316,128687235,0,-0.1040182,-0.1057997,0.02671574,0.2759392,-0.2347066,-9.979085,0,0,27.42598,1,1,7975,996
6208,2023-01-20 10:50:08.702040,128726963,0,-0.1783948,-0.1859222,0.01194719,0.3640279,-0.301144,-9.967884,0,0,27.42877,1,1,7975,996
6237,2023-01-20 10:50:08.742496,128767422,0,-0.1691341,-0.1694536,-0.01702587,0.3348408,-0.2451697,-9.990973,0,0,27.43163,1,1,7975,996
6238,2023-01-20 10:50:08.782069,128806999,0,-0.1441355,-0.1459181,-0.04438046,0.3051806,-0.1951584,-9.825455,0,0,27.43395,1,1,7975,996
6242,2023-01-20 10:50:08.822317,128847226,0,-0.04804093,-0.1004086,-0.05830026,0.263114,-0.13227,-9.859949,0,0,27.43646,1,1,7975,996
6273,2023-01-20 10:50:08.862079,128886949,0,-0.08467618,-0.0441021,-0.0705509,0.2478387,-0.1283111,-9.943623,0,0,27.43896,1,1,7975,996
6275,2023-01-20 10:50:08.902128,128926959,0,-0.1127089,0.008626346,-0.07733238,0.2276087,-0.148085,-10.00579,0,0,27.44116,1,1,7975,996
6304,2023-01-20 10:50:08.942603,128967394,0,-0.1282256,0.0617286,-0.0793998,0.1320133,-0.1356679,-10.11302,0,0,27.4436,1,1,7975,996
6305,2023-01-20 10:50:08.982298,129007050,0,-0.1281908,0.09330394,-0.08814315,0.1288982,-0.05422758,-10.13238,0,0,27.44714,1,1,7975,996
6308,2023-01-20 10:50:09.022539,129047265,0,-0.08724958,0.07137571,-0.06214459,0.2017764,-0.04031057,-9.975535,0,0,27.45155,1,1,7975,996
6337,2023-01-20 10:50:09.062214,129086925,0,-0.09735975,0.03788844,-0.02648933,0.2711478,-0.1500575,-9.902431,0,0,27.45588,1,1,7975,996
6338,2023-01-20 10:50:09.102239,129126935,0,-0.09495582,0.04109333,0.005722823,0.3111095,-0.1836736,-9.798981,0,0,27.45951,1,1,7975,996
6369,2023-01-20 10:50:09.142745,129167425,0,-0.08616702,0.0658547,0.04587544,0.2733026,-0.1603573,-9.66768,0,0,27.46248,1,1,7975,996
6370,2023-01-20 10:50:09.182334,129206999,0,-0.09602646,0.1428514,0.07155804,0.1456775,-0.1754315,-9.69061,0,0,27.46463,1,1,7975,996
6373,2023-01-20 10:50:09.222543,129247242,0,-0.106395,0.1808932,0.06398223,0.0623261,-0.2222117,-9.904638,0,0,27.46712,1,1,7975,996
6402,2023-01-20 10:50:09.262150,129286920,0,-0.06474192,0.1842297,0.05874514,-0.01423684,-0.2624457,-10.06744,0,0,27.46953,1,1,7975,996
6403,2023-01-20 10:50:09.302100,129326942,0,-0.008017506,0.157852,0.07747085,-0.08345129,-0.1933796,-10.06162,0,0,27.47261,1,1,7975,996
6432,2023-01-20 10:50:09.342766,129367681,0,-0.0007579968,0.2794781,0.08833252,-0.1301108,-0.2155562,-9.916518,0,0,27.47526,1,1,7975,996
6433,2023-01-20 10:50:09.384788,129409778,0,0.06387118,0.2836842,0.1248997,-0.003119367,-0.2016155,-9.511795,0,0,27.4775,1,1,7975,996
6436,2023-01-20 10:50:09.424400,129449719,0,0.05585691,0.3041162,0.126382,0.03574313,-0.2171211,-9.162271,0,0,27.47993,1,1,7975,996
6465,2023-01-20 10:50:09.463897,129489703,0,0.1050936,0.3517693,0.1380588,-0.1102913,-0.0827265,-9.164153,0,0,27.48325,1,1,7975,996
6466,2023-01-20 10:50:09.503742,129530040,0,0.09729725,0.3347426,0.155179,-0.02991658,-0.2018264,-9.385509,0,0,27.48612,1,1,7975,996
6497,2023-01-20 10:50:09.543041,129569824,0,0.05848804,0.2479401,0.1457393,-0.03247276,-0.3328079,-9.267122,0,0,27.48938,1,1,7975,996
6498,2023-01-20 10:50:09.582551,129609822,0,0.1222421,0.1420024,0.1645895,-0.0469774,-0.1728868,-9.37641,0,0,27.49302,1,1,7975,996
6502,2023-01-20 10:50:09.622216,129649703,0,0.1558933,0.1580598,0.1490691,-0.139023,-0.2562756,-9.335514,0,0,27.49661,1,1,7975,996
6533,2023-01-20 10:50:09.662216,129689703,0,0.1319751,0.08000123,0.13176,-0.1220274,-0.1628964,-9.472901,0,0,27.50031,1,1,7975,996
6534,2023-01-20 10:50:09.702551,129730039,0,0.04503522,0.0130762,0.112165,-0.1097741,-0.263173,-9.619727,0,0,27.50401,1,1,7975,996
6563,2023-01-20 10:50:09.742236,129769724,0,0.03114158,-0.1038654,0.0930997,-0.1230842,-0.1282713,-9.50459,0,0,27.50753,1,1,7975,996
6564,2023-01-20 10:50:09.782287,129809776,0,-0.05557319,-0.1197214,0.1086134,-0.1180511,-0.250588,-9.521998,0,0,27.51131,1,1,7975,996
6568,2023-01-20 10:50:09.822285,129849779,0,-0.07946657,-0.1270508,0.09467972,-0.07873169,-0.2111651,-9.287751,0,0,27.51478,1,1,7975,996
6597,2023-01-20 10:50:09.862213,129889716,0,-0.108639,-0.09196272,0.08465835,-0.01521831,-0.3745268,-9.356474,0,0,27.51711,1,1,7975,996
6599,2023-01-20 10:50:09.902521,129930033,0,0.01959269,-0.05373014,0.05441857,-0.1108874,-0.09882589,-9.139178,0,0,27.51912,1,1,7975,996
6628,2023-01-20 10:50:09.942202,129969722,0,0.0313531,0.04404031,0.03118651,-0.2936395,-0.1602032,-9.28317,0,0,27.52136,1,1,7975,996
6629,2023-01-20 10:50:09.982331,130009860,0,-0.05167103,-0.03801592,0.03605609,-0.1389291,-0.1269239,-9.335099,0,0,27.52341,1,1,7975,996
6632,2023-01-20 10:50:10.022192,130049720,0,-0.1304573,-0.07681304,0.02996898,-0.1073831,-0.2374537,-9.360636,0,0,27.52582,1,1,7975,996
6661,2023-01-20 10:50:10.062217,130089735,0,-0.09526651,-0.1481061,0.04708145,0.02481472,-0.1328199,-9.434904,0,0,27.52887,1,1,7975,996
6662,2023-01-20 10:50:10.102538,130130045,0,-0.08434156,-0.164971,0.03582994,-0.0296442,-0.2107227,-9.425217,0,0,27.53187,1,1,7975,996
6693,2023-01-20 10:50:10.142205,130169702,0,-0.002016409,-0.1875889,0.05951373,0.00314611,-0.1385081,-9.459308,0,0,27.53456,1,1,7975,996
6694,2023-01-20 10:50:10.182348,130209835,0,0.02828845,-0.1066141,0.03887461,-0.1467196,-0.1801825,-9.355378,0,0,27.53767,1,1,7975,996
6697,2023-01-20 10:50:10.222178,130249718,0,0.05166013,-0.06734537,0.03098754,-0.1864523,-0.1086298,-9.554379,0,0,27.5406,1,1,7975,996
6726,2023-01-20 10:50:10.262176,130289820,0,-0.00918547,-0.07901927,0.004501716,-0.2454754,-0.07855239,-9.408679,0,0,27.54358,1,1,7975,996
6727,2023-01-20 10:50:10.302298,130330046,0,-0.1057674,-0.09537351,0.02259222,-0.06836008,-0.1833732,-9.56274,0,0,27.54676,1,1,7975,996
6756,2023-01-20 10:50:10.341871,130369721,0,-0.1040341,-0.06349245,0.00011868,-0.06719705,-0.1550283,-9.48835,0,0,27.54926,1,1,7975,996
6757,2023-01-20 10:50:10.382134,130410089,0,-0.060754,-0.06523654,0.005969978,0.1132677,-0.1978168,-9.548214,0,0,27.55189,1,1,7975,996
6760,2023-01-20 10:50:10.422063,130450070,0,0.02572827,-0.04387276,-0.03153183,0.0876305,-0.09827384,-9.274477,0,0,27.55433,1,1,7975,996
6789,2023-01-20 10:50:10.462375,130490393,0,0.134668,0.05488334,-0.02475545,-0.06398624,-0.08615155,-9.290628,0,0,27.55688,1,1,7975,996
6790,2023-01-20 10:50:10.502043,130530071,0,0.1371404,0.1966246,-0.03291209,-0.2823984,-0.03577578,-9.284744,0,0,27.55951,1,1,7975,996
6821,2023-01-20 10:50:10.542049,130570088,0,0.06318404,0.2650115,-0.009438641,-0.1409695,-0.1596224,-9.510039,0,0,27.56103,1,1,7975,996
6822,2023-01-20 10:50:10.582072,130610122,0,-0.001267726,0.3613308,-0.02336584,-0.09956048,-0.1104682,-9.374153,0,0,27.56266,1,1,7975,996
6826,2023-01-20 10:50:10.622031,130650090,0,0.04273035,0.4625849,-0.02027966,-0.01697589,-0.07072771,-9.378905,0,0,27.56435,1,1,7975,996
6857,2023-01-20 10:50:10.662310,130690376,0,0.0871351,0.6147158,-0.03627056,-0.1215503,-0.08403353,-9.353692,0,0,27.5664,1,1,7975,996
6858,2023-01-20 10:50:10.701996,130730069,0,0.1740184,0.589641,-0.03574124,0.007180234,0.08749661,-9.297752,0,0,27.56883,1,1,7975,996
6887,2023-01-20 10:50:10.741955,130770036,0,0.07528187,0.5704075,-0.03806448,0.04623848,-0.1191409,-9.294628,0,0,27.57171,1,1,7975,996
6888,2023-01-20 10:50:10.782074,130810162,0,0.110663,0.4754415,-0.05225616,0.08712178,0.006847936,-9.023976,0,0,27.57463,1,1,7975,996
6892,2023-01-20 10:50:10.822036,130850146,0,0.0664734,0.2581168,-0.04030115,0.3047808,-0.08437468,-9.470156,0,0,27.57766,1,1,7975,996
6921,2023-01-20 10:50:10.862235,130890381,0,0.009196348,0.1288085,-0.03154319,0.2332044,-0.06199557,-9.491348,0,0,27.58098,1,1,7975,996
6922,2023-01-20 10:50:10.901886,130930067,0,-0.01541219,-0.01710823,-0.02603771,0.2281222,-0.1225553,-9.829432,0,0,27.58511,1,1,7975,996
6951,2023-01-20 10:50:10.941835,130970052,0,-0.01606071,-0.1393595,-0.04731632,0.1846896,-0.1563192,-9.902512,0,0,27.58929,1,1,7975,996
6952,2023-01-20 10:50:10.981991,131010243,0,-0.008899589,-0.3278414,-0.06468743,0.2378706,-0.0677743,-9.808459,0,0,27.59303,1,1,7975,996
6955,2023-01-20 10:50:11.021843,131050092,0,-0.01023181,-0.3580773,-0.07496963,0.1623121,-0.0990717,-9.971848,0,0,27.59631,1,1,7975,996
6984,2023-01-20 10:50:11.062167,131090381,0,-0.04559007,-0.2915066,-0.0861082,0.05090012,-0.258754,-9.811143,0,0,27.59897,1,1,7975,996
6985,2023-01-20 10:50:11.101873,131130053,0,-0.0274164,-0.1924278,-0.1132618,-0.01725755,-0.2163186,-9.690706,0,0,27.60171,1,1,7975,996
7016,2023-01-20 10:50:11.141923,131170068,0,-0.01059869,-0.1383923,-0.1142557,0.03295455,-0.07261288,-9.764517,0,0,27.60468,1,1,7975,996
7017,2023-01-20 10:50:11.182036,131210147,0,0.104777,-0.0864138,-0.09621409,0.06699964,-0.01491254,-9.803896,0,0,27.60746,1,1,7975,996
7021,2023-01-20 10:50:11.221986,131250082,0,0.1217305,-0.03694489,-0.09569371,0.06161208,-0.04398296,-9.662852,0,0,27.61046,1,1,7975,996
7050,2023-01-20 10:50:11.262319,131290418,0,0.06744,-0.01898671,-0.09891646,0.06084217,-0.1163166,-9.477674,0,0,27.61346,1,1,7975,996
7051,2023-01-20 10:50:11.301994,131330096,0,-0.003740814,-0.02848201,-0.0930298,0.03274676,-0.06342331,-9.416249,0,0,27.61678,1,1,7975,996
7080,2023-01-20 10:50:11.341970,131370075,0,0.03456577,-0.00374938,-0.08693464,0.01615785,0.1308079,-9.445563,0,0,27.61941,1,1,7975,996
7081,2023-01-20 10:50:11.382045,131410153,0,0.06323601,0.01243631,-0.0751666,0.0161406,0.1258349,-9.580489,0,0,27.62221,1,1,7975,996
7084,2023-01-20 10:50:11.421978,131450086,0,0.02640435,-0.006666508,-0.06824216,0.04604492,-0.03700912,-9.811101,0,0,27.62503,1,1,7975,996
7113,2023-01-20 10:50:11.462280,131490385,0,-0.01552687,0.01425427,-0.07912269,0.07152276,-0.1654834,-9.821584,0,0,27.6274,1,1,7975,996
7114,2023-01-20 10:50:11.501964,131530067,0,0.02304834,-0.008766746,-0.09305337,0.1088869,-0.01142402,-9.684649,0,0,27.6303,1,1,7975,996
7145,2023-01-20 10:50:11.542011,131570111,0,0.04661329,-0.03730716,-0.08760147,0.1560359,0.009489858,-9.631123,0,0,27.6337,1,1,7975,996
7146,2023-01-20 10:50:11.582026,131610124,0,-0.01814904,-0.00245263,-0.08188938,0.1457086,0.03024835,-9.77522,0,0,27.63702,1,1,7975,996
7150,2023-01-20 10:50:11.621967,131650064,0,-0.05815497,-0.00339003,-0.07415322,0.1263115,0.03012008,-9.87851,0,0,27.64053,1,1,7975,996
7181,2023-01-20 10:50:11.662310,131690407,0,-0.03565433,-0.01309463,-0.03216048,0.02846693,-0.0723341,-9.957967,0,0,27.64371,1,1,7975,996
7182,2023-01-20 10:50:11.701969,131730067,0,0.08235348,-0.03393605,-0.0020479,0.03101843,-0.01519385,-9.786442,0,0,27.64669,1,1,7975,996
7211,2023-01-20 10:50:11.741949,131770047,0,0.1060712,-0.06838946,0.02756274,0.103653,0.03476315,-9.550873,0,0,27.6498,1,1,7975,996
7212,2023-01-20 10:50:11.782028,131810126,0,-0.04153187,-0.1035312,0.04101839,0.3023758,-0.08336771,-9.703425,0,0,27.65302,1,1,7975,996
7216,2023-01-20 10:50:11.821979,131850093,0,-0.1389324,-0.04262358,0.03727241,0.3539172,-0.06919359,-9.758172,0,0,27.65593,1,1,7975,996
7245,2023-01-20 10:50:11.862245,131890390,0,-0.07709914,0.02395691,0.0687205,0.3793018,0.02035142,-9.722295,0,0,27.65886,1,1,7975,996
7246,2023-01-20 10:50:11.901890,131930064,0,-0.01200588,0.115476,0.08625125,0.248979,0.06063652,-9.577746,0,0,27.66196,1,1,7975,996
7274,2023-01-20 10:50:11.941840,131970044,0,0.01448121,0.1168768,0.08773081,0.1183007,-0.004374313,-9.470213,0,0,27.66515,1,1,7975,996
7276,2023-01-20 10:50:11.981999,132010234,0,0.008087343,0.01576979,0.1213747,0.2016157,0.0889804,-9.368445,0,0,27.66764,1,1,7975,996
7279,2023-01-20 10:50:12.021866,132050096,0,-0.09526031,-0.07531329,0.1782929,0.4473601,0.04144304,-9.342306,0,0,27.66947,1,1,7975,996
7308,2023-01-20 10:50:12.062228,132090426,0,-0.1260739,0.0115557,0.1791726,0.3588098,-0.1175139,-9.370803,0,0,27.67165,1,1,7975,996
7309,2023-01-20 10:50:12.101902,132130067,0,-0.06190185,0.1077207,0.1667328,0.1179273,-0.03496968,-9.492277,0,0,27.674,1,1,7975,996
7339,2023-01-20 10:50:12.141927,132170060,0,0.002859323,0.0192677,0.206431,0.2025299,0.001798561,-9.595794,0,0,27.67651,1,1,7975,996
7341,2023-01-20 10:50:12.181983,132210084,0,-0.06636267,-0.09687199,0.2094538,0.3179684,-0.03977715,-9.341939,0,0,27.67905,1,1,7975,996
7344,2023-01-20 10:50:12.221982,132250069,0,-0.0545827,-0.1449293,0.179813,0.4284778,0.01342192,-9.137913,0,0,27.68142,1,1,7975,996
7373,2023-01-20 10:50:12.262338,132290426,0,-0.0523218,-0.077902,0.1234251,0.3323347,-0.1375565,-9.346608,0,0,27.68396,1,1,7975,996
7374,2023-01-20 10:50:12.301959,132330048,0,-0.07668748,-0.006833446,0.04513315,0.09650455,-0.1006553,-9.31474,0,0,27.68748,1,1,7975,996
7402,2023-01-20 10:50:12.341962,132370053,0,-0.09167928,-0.04492549,0.02329464,0.2341605,-0.07980986,-9.478089,0,0,27.6914,1,1,7975,996
7404,2023-01-20 10:50:12.382062,132410154,0,-0.07637121,-0.01605904,-0.008401131,0.3137355,-0.2270212,-9.39878,0,0,27.69497,1,1,7975,996
7407,2023-01-20 10:50:12.421999,132450093,0,0.0608129,0.02787459,-0.02063863,0.2440328,0.00359856,-9.426848,0,0,27.69777,1,1,7975,996
7436,2023-01-20 10:50:12.462283,132490381,0,0.06281953,0.08807111,-0.01733753,0.2146168,-0.05021312,-9.825989,0,0,27.70041,1,1,7975,996
7437,2023-01-20 10:50:12.501959,132530060,0,-0.02143191,0.01910446,-0.02019642,0.3153814,-0.2100631,-9.72275,0,0,27.70269,1,1,7975,996
7467,2023-01-20 10:50:12.541992,132570096,0,-0.01529295,-0.05413227,-0.006501331,0.3418525,-0.2095672,-9.570223,0,0,27.70434,1,1,7975,996
7469,2023-01-20 10:50:12.581978,132610085,0,0.01872018,-0.03203452,0.01614086,0.3208373,-0.2350378,-9.598908,0,0,27.70652,1,1,7975,996
7473,2023-01-20 10:50:12.621961,132650067,0,0.07327458,-0.03951454,0.02812476,0.2710045,-0.2190242,-9.490706,0,0,27.70958,1,1,7975,996
7504,2023-01-20 10:50:12.662286,132690387,0,0.1632604,-0.1237847,0.02864084,0.2386786,-0.00900557,-9.272117,0,0,27.71347,1,1,7975,996
7505,2023-01-20 10:50:12.702158,132730255,0,0.1075375,-0.240973,0.03284134,0.2789403,-0.03040151,-9.422724,0,0,27.71764,1,1,7975,996
7533,2023-01-20 10:50:12.741963,132770056,0,-0.04511979,-0.1976528,0.007383763,0.2844531,-0.3202088,-9.532907,0,0,27.7211,1,1,7975,996
7535,2023-01-20 10:50:12.781970,132810059,0,0.0283761,-0.03976455,-0.07289196,0.16868,-0.3286765,-9.642302,0,0,27.72519,1,1,7975,996
7539,2023-01-20 10:50:12.821980,132850083,0,0.1648013,0.03076423,-0.1384402,0.09214395,-0.2039053,-9.721944,0,0,27.72956,1,1,7975,996
7568,2023-01-20 10:50:12.862246,132890379,0,0.2262355,-0.04808145,-0.1624268,0.1822471,-0.1302138,-9.724642,0,0,27.73355,1,1,7975,996
7569,2023-01-20 10:50:12.901903,132930065,0,0.1464985,-0.08544479,-0.1548169,0.2878065,-0.1371005,-9.773242,0,0,27.73689,1,1,7975,996
7598,2023-01-20 10:50:12.941833,132970024,0,0.05462564,-0.07825334,-0.1516534,0.3972071,-0.1872445,-9.803336,0,0,27.73979,1,1,7975,996
7600,2023-01-20 10:50:12.982016,133010237,0,-0.04591446,-0.05788655,-0.1608331,0.434224,-0.3034433,-9.800964,0,0,27.7425,1,1,7975,996
7603,2023-01-20 10:50:13.021871,133050089,0,-0.04904019,-0.04271114,-0.1737607,0.4167077,-0.3065927,-9.721143,0,0,27.74498,1,1,7975,996
7632,2023-01-20 10:50:13.062192,133090380,0,-0.04351673,0.00776919,-0.2025545,0.2311211,-0.2224358,-9.662727,0,0,27.74742,1,1,7975,996
7633,2023-01-20 10:50:13.101897,133130055,0,0.05500191,0.05066541,-0.2311227,0.1851482,-0.1564087,-9.872132,0,0,27.7509,1,1,7975,996
7663,2023-01-20 10:50:13.141925,133170054,0,0.0645092,-0.008164182,-0.23703,0.2797123,-0.1435795,-9.926002,0,0,27.75333,1,1,7975,996
7665,2023-01-20 10:50:13.181977,133210076,0,-0.03730534,-0.06035163,-0.2323819,0.3372244,-0.2382875,-9.903796,0,0,27.75607,1,1,7975,996
7668,2023-01-20 10:50:13.222006,133250093,0,-0.0362059,-0.04921379,-0.2267233,0.4040863,-0.1019247,-9.769641,0,0,27.75897,1,1,7975,996
7697,2023-01-20 10:50:13.262336,133290424,0,-0.06520053,-0.08660557,-0.2406154,0.4464913,-0.1967313,-9.769058,0,0,27.76171,1,1,7975,996
7698,2023-01-20 10:50:13.301983,133330072,0,-0.1641748,-0.1267984,-0.2697149,0.4248985,-0.4325949,-9.827417,0,0,27.76408,1,1,7975,996
7726,2023-01-20 10:50:13.341973,133370063,0,-0.1511054,-0.08378397,-0.283597,0.387527,-0.2835071,-9.530638,0,0,27.76606,1,1,7975,996
7728,2023-01-20 10:50:13.381997,133410088,0,-0.083959,-0.01036507,-0.2993149,0.3562795,-0.07089889,-9.554152,0,0,27.76936,1,1,7975,996
7731,2023-01-20 10:50:13.421981,133450073,0,0.0206967,0.04395098,-0.2945995,0.3571701,-0.1117345,-9.779582,0,0,27.77319,1,1,7975,996
7760,2023-01-20 10:50:13.462290,133490382,0,0.1200096,-0.01647389,-0.2685986,0.5593601,-0.08941964,-9.657751,0,0,27.77674,1,1,7975,996
7761,2023-01-20 10:50:13.501983,133530075,0,0.1933729,0.02920839,-0.2255274,0.4216808,-0.01054552,-9.341304,0,0,27.77963,1,1,7975,996
7791,2023-01-20 10:50:13.541996,133570087,0,0.1697939,0.005098161,-0.1994238,0.4754494,-0.1846427,-9.517712,0,0,27.78268,1,1,7975,996
7793,2023-01-20 10:50:13.581985,133610076,0,0.1216075,-0.02412673,-0.180637,0.6383101,-0.07980977,-9.4431,0,0,27.78577,1,1,7975,996
7797,2023-01-20 10:50:13.621983,133650074,0,0.05510077,0.0005513583,-0.1645488,0.4810522,-0.1927241,-9.723687,0,0,27.78903,1,1,7975,996
7828,2023-01-20 10:50:13.662290,133690382,0,0.007601378,0.02782349,-0.09985289,0.4209135,0.001756073,-9.657748,0,0,27.79216,1,1,7975,996
7829,2023-01-20 10:50:13.702024,133730117,0,-0.009073753,-0.03703289,-0.04766526,0.5280713,-0.200274,-9.863079,0,0,27.79463,1,1,7975,996
7857,2023-01-20 10:50:13.741950,133770043,0,-0.1819397,-0.1800923,0.02962916,0.7712748,-0.2573344,-9.596506,0,0,27.79741,1,1,7975,996
7859,2023-01-20 10:50:13.781989,133810083,0,-0.2190966,-0.1509019,0.07035237,0.5368556,-0.2102012,-9.597425,0,0,27.80071,1,1,7975,996
7863,2023-01-20 10:50:13.821988,133850100,0,-0.1839106,-0.1052895,0.09520699,0.6340231,-0.09887472,-9.660093,0,0,27.80398,1,1,7975,996
7892,2023-01-20 10:50:13.862307,133890453,0,-0.1025137,-0.2006187,0.09033071,0.6685969,-0.2141689,-9.871592,0,0,27.80701,1,1,7975,996
7895,2023-01-20 10:50:13.901870,133930049,0,-0.03343127,-0.2261301,0.07696225,0.7469161,-0.1533148,-9.695457,0,0,27.81024,1,1,7975,996
7923,2023-01-20 10:50:13.941828,133970040,0,0.0641406,-0.2774152,0.05633773,0.7207257,-0.1621397,-10.01608,0,0,27.81326,1,1,7975,996
7925,2023-01-20 10:50:13.981878,134010123,0,0.1109225,-0.1061344,0.07278205,0.5397235,-0.06977941,-10.02934,0,0,27.81625,1,1,7975,996
7928,2023-01-20 10:50:14.021847,134050091,0,0.144911,0.01425218,0.09535422,0.5162818,-0.2287484,-9.999852,0,0,27.81935,1,1,7975,996
7956,2023-01-20 10:50:14.062173,134090387,0,0.132235,0.1738604,0.1017722,0.3546495,-0.02150915,-9.707132,0,0,27.82224,1,1,7974,996
7958,2023-01-20 10:50:14.101882,134130067,0,0.1341144,0.1723883,0.1008672,0.4681556,-0.04200848,-9.62006,0,0,27.82544,1,1,7974,996
7988,2023-01-20 10:50:14.141908,134170064,0,0.06253286,0.09753402,0.1052232,0.6057626,-0.02303248,-9.251921,0,0,27.82903,1,1,7974,996
7990,2023-01-20 10:50:14.181954,134210080,0,0.008829656,-0.00333849,0.1175806,0.7492546,-0.2367501,-9.427165,0,0,27.83284,1,1,7974,996
7993,2023-01-20 10:50:14.221965,134250076,0,-0.06261332,-0.1042888,0.13185,0.9245522,-0.1987075,-9.375777,0,0,27.83643,1,1,7974,996
8021,2023-01-20 10:50:14.262322,134290430,0,-0.1148913,-0.0860149,0.1089675,0.7578147,-0.2047207,-9.412474,0,0,27.83956,1,1,7974,996
8023,2023-01-20 10:50:14.301963,134330068,0,-0.1460006,-0.01318127,0.08675545,0.6515709,-0.2744468,-9.698822,0,0,27.84225,1,1,7974,996
8051,2023-01-20 10:50:14.341965,134370067,0,-0.08570657,0.05248457,0.08171612,0.6706853,-0.1158622,-9.521075,0,0,27.84537,1,1,7974,996
8053,2023-01-20 10:50:14.381973,134410072,0,-0.039542,0.05809105,0.07570871,0.6729586,0.01114129,-9.471812,0,0,27.84844,1,1,7974,996
8056,2023-01-20 10:50:14.421984,134450082,0,-0.05499308,0.03728126,0.05199746,0.6990613,-0.04638106,-9.714418,0,0,27.85126,1,1,7974,996
8084,2023-01-20 10:50:14.462285,134490383,0,-0.1241889,0.05443254,0.04382418,0.6637014,-0.2567576,-10.0124,0,0,27.85421,1,1,7974,996
8086,2023-01-20 10:50:14.501972,134530070,0,-0.1056555,0.04864479,0.05416919,0.7157123,-0.3072323,-10.10324,0,0,27.85702,1,1,7974,996
8117,2023-01-20 10:50:14.542006,134570104,0,-0.05256351,-0.03200453,0.06925271,0.8421358,-0.2318106,-9.901114,0,0,27.85998,1,1,7974,996
8119,2023-01-20 10:50:14.581974,134610072,0,-0.0362625,-0.005719187,0.0977961,0.7750796,-0.1954393,-9.787616,0,0,27.86267,1,1,7974,996
8123,2023-01-20 10:50:14.621971,134650069,0,-0.06728411,-0.05426849,0.1041904,0.7816982,-0.2019255,-9.851462,0,0,27.86495,1,1,7974,996
8153,2023-01-20 10:50:14.662653,134690751,0,-0.06517316,-0.03518797,0.08438793,0.7975819,-0.3171281,-9.875637,0,0,27.86695,1,1,7974,996
8155,2023-01-20 10:50:14.702133,134730231,0,0.002970922,-0.06742945,0.08918341,0.8636819,-0.2899747,-9.957932,0,0,27.86868,1,1,7974,996
8183,2023-01-20 10:50:14.741955,134770053,0,0.1027107,-0.09265129,0.09896179,0.8574685,-0.1409109,-9.824248,0,0,27.87092,1,1,7974,996
8185,2023-01-20 10:50:14.781970,134810068,0,0.0282513,-0.03630419,0.07145061,0.8110209,-0.1878821,-9.941257,0,0,27.87375,1,1,7974,996
8189,2023-01-20 10:50:14.821989,134850105,0,-0.08231901,0.05380369,0.03933314,0.7897628,-0.2631861,-10.05192,0,0,27.87655,1,1,7974,996
8217,2023-01-20 10:50:14.862234,134890384,0,-0.07997558,0.00727568,0.007640686,0.8126494,-0.2452575,-10.06577,0,0,27.87892,1,1,7974,996
8219,2023-01-20 10:50:14.901866,134930050,0,-0.06352226,0.0137116,-0.02302277,0.7148432,-0.1907924,-10.022,0,0,27.88077,1,1,7974,996
8247,2023-01-20 10:50:14.941834,134970051,0,-0.12186,0.05152982,-0.0502491,0.7661127,-0.2423852,-9.898369,0,0,27.88252,1,1,7974,996
8249,2023-01-20 10:50:14.981871,135010122,0,-0.05562939,-0.03612807,-0.05134092,0.9211241,-0.2292403,-9.751908,0,0,27.88495,1,1,7974,996
8252,2023-01-20 10:50:15.021839,135050091,0,0.009711066,-0.09301761,-0.05750694,0.9185792,-0.157793,-9.656075,0,0,27.88765,1,1,7974,996
8280,2023-01-20 10:50:15.062187,135090413,0,0.09102467,-0.04764634,-0.07678625,0.7695882,-0.04181159,-9.795232,0,0,27.88948,1,1,7974,996
8282,2023-01-20 10:50:15.101854,135130054,0,0.08892843,0.05613432,-0.1121617,0.6879355,-0.07971504,-9.960582,0,0,27.89082,1,1,7974,996
8312,2023-01-20 10:50:15.141892,135170066,0,0.08772359,0.1437977,-0.1028931,0.6824251,-0.1760045,-9.897981,0,0,27.89205,1,1,7974,996
8314,2023-01-20 10:50:15.181935,135210083,0,0.05500777,0.1778823,-0.07053491,0.7536871,-0.2110851,-9.748025,0,0,27.89408,1,1,7974,996
8317,2023-01-20 10:50:15.221931,135250063,0,0.03285823,0.1499483,-0.03620579,0.7642646,-0.09196318,-9.475155,0,0,27.89625,1,1,7974,996
8345,2023-01-20 10:50:15.262311,135290434,0,0.05135933,0.08429372,-0.03303463,0.7279527,-0.1740708,-9.547679,0,0,27.89835,1,1,7974,996
8347,2023-01-20 10:50:15.301950,135330065,0,0.04306505,-0.02027642,-0.02130966,0.8209282,-0.1650406,-9.564261,0,0,27.90026,1,1,7974,996
8375,2023-01-20 10:50:15.341969,135370076,0,0.04858377,-0.06015057,0.002169313,0.8017873,-0.06973416,-9.562031,0,0,27.9018,1,1,7974,996
8377,2023-01-20 10:50:15.381970,135410070,0,-0.004337124,-0.0108401,-0.0002315669,0.7007737,-0.09244724,-9.815072,0,0,27.90379,1,1,7974,996
8380,2023-01-20 10:50:15.422041,135450138,0,-0.05325224,0.01323098,-0.02573472,0.7315161,-0.1749665,-10.07725,0,0,27.90609,1,1,7974,996
8408,2023-01-20 10:50:15.462285,135490383,0,-0.03491844,-0.06710782,-0.02266584,0.8730336,-0.1359276,-9.753982,0,0,27.90767,1,1,7974,996
8410,2023-01-20 10:50:15.501969,135530068,0,-0.02294844,-0.09194577,-0.01338619,0.8656642,-0.05814934,-9.572905,0,0,27.90886,1,1,7974,996
8440,2023-01-20 10:50:15.541991,135570091,0,-0.01352787,-0.08682586,-0.02700826,0.884654,-0.1273281,-9.749619,0,0,27.90975,1,1,7974,996
8442,2023-01-20 10:50:15.581962,135610064,0,0.0063992,-0.1178772,-0.03439497,0.9483458,-0.09034608,-9.60653,0,0,27.91068,1,1,7974,996
8446,2023-01-20 10:50:15.621974,135650075,0,0.01402838,-0.06915028,-0.05569059,0.9626615,-0.02127012,-9.568627,0,0,27.91248,1,1,7974,996
8476,2023-01-20 10:50:15.662630,135690730,0,-0.07433447,0.04228657,-0.08759017,0.8063067,-0.1199832,-9.756779,0,0,27.91415,1,1,7974,996
8478,2023-01-20 10:50:15.702000,135730100,0,-0.09671213,0.1192505,-0.1135062,0.693573,-0.1428035,-9.848439,0,0,27.91597,1,1,7974,996
8506,2023-01-20 10:50:15.741946,135770044,0,-0.0001532377,0.02760854,-0.1072758,0.8594333,0.02142074,-9.554781,0,0,27.91875,1,1,7974,996
8508,2023-01-20 10:50:15.781977,135810075,0,0.02541808,-0.03564994,-0.1126823,0.8956367,0.04226337,-9.406738,0,0,27.92177,1,1,7974,996
8512,2023-01-20 10:50:15.821972,135850076,0,-0.04552269,-0.04224264,-0.1770399,0.9351359,-0.2294991,-9.355843,0,0,27.92485,1,1,7974,996
8540,2023-01-20 10:50:15.862270,135890386,0,-0.01563408,0.004940002,-0.2451661,0.8079318,-0.2958061,-9.517408,0,0,27.92736,1,1,7974,996
8542,2023-01-20 10:50:15.901923,135930052,0,0.06627674,0.00315138,-0.2994541,0.8362209,-0.1411753,-9.48514,0,0,27.92936,1,1,7974,996
8570,2023-01-20 10:50:15.941891,135970032,0,0.113965,-0.05645438,-0.3635391,0.8448592,-0.08325306,-9.28126,0,0,27.93127,1,1,7974,996
8572,2023-01-20 10:50:15.981965,136010118,0,0.07931028,0.04377138,-0.4523686,0.7227689,-0.120815,-9.499604,0,0,27.93302,1,1,7974,996
8575,2023-01-20 10:50:16.021945,136050097,0,0.0403808,0.02980024,-0.5119607,0.7550348,-0.06456515,-9.757871,0,0,27.93472,1,1,7974,996
8603,2023-01-20 10:50:16.062233,136090373,0,0.07173,-0.003152815,-0.5728478,0.8308588,-0.142956,-9.598164,0,0,27.93652,1,1,7974,996
8605,2023-01-20 10:50:16.101977,136130104,0,0.07388797,0.1425413,-0.6438699,0.7004586,-0.1664174,-9.702404,0,0,27.93845,1,1,7974,996
8635,2023-01-20 10:50:16.141942,136170057,0,0.08187713,0.07524686,-0.6880394,0.8556085,-0.1128444,-9.495192,0,0,27.9395,1,1,7974,996
8637,2023-01-20 10:50:16.181977,136210079,0,0.1443192,0.008007745,-0.7033482,0.922031,-0.01854421,-9.346004,0,0,27.93923,1,1,7974,996
8640,2023-01-20 10:50:16.221979,136250088,0,0.1331262,-0.05173144,-0.72799,0.9230007,0.1262351,-9.419493,0,0,27.93878,1,1,7974,996
8668,2023-01-20 10:50:16.262248,136290379,0,0.07270233,0.00481434,-0.7461407,0.9391544,0.05053568,-9.44823,0,0,27.93893,1,1,7974,996
8670,2023-01-20 10:50:16.301918,136330070,0,0.1019874,0.04189637,-0.726274,0.8243308,0.1136474,-9.673777,0,0,27.93819,1,1,7974,996
8698,2023-01-20 10:50:16.341892,136370066,0,0.08685487,-0.02705382,-0.7169583,0.9135418,0.1562939,-9.663414,0,0,27.93772,1,1,7974,996
8700,2023-01-20 10:50:16.381945,136410141,0,0.04328006,0.01047694,-0.7055052,0.900149,0.04008047,-9.509007,0,0,27.93856,1,1,7974,996
8703,2023-01-20 10:50:16.421873,136450066,0,-0.04063263,0.0656607,-0.6852433,0.799987,0.003709646,-9.728692,0,0,27.93987,1,1,7974,996
8731,2023-01-20 10:50:16.462210,136490380,0,-0.08381402,0.03381313,-0.6611013,0.8285916,0.1587058,-9.877914,0,0,27.94152,1,1,7974,996
8733,2023-01-20 10:50:16.501918,136530065,0,-0.05282021,-0.08052006,-0.627776,1.054079,0.1838217,-9.639993,0,0,27.94311,1,1,7974,996
8763,2023-01-20 10:50:16.541958,136570082,0,0.06814443,-0.08538278,-0.6031448,0.9621704,0.286764,-9.561506,0,0,27.94478,1,1,7974,996
8764,2023-01-20 10:50:16.581980,136610081,0,0.07544386,-0.02710871,-0.5809027,0.8085819,0.3963257,-9.70732,0,0,27.94593,1,1,7974,996
8769,2023-01-20 10:50:16.621974,136650065,0,-0.03448266,0.003435265,-0.5691413,0.8515364,0.3370147,-9.775963,0,0,27.94715,1,1,7974,996
8799,2023-01-20 10:50:16.662656,136690748,0,-0.1242269,0.04490255,-0.5746498,0.8325636,0.2098933,-9.694235,0,0,27.94917,1,1,7974,996
8801,2023-01-20 10:50:16.702046,136730139,0,-0.09135462,0.01087428,-0.5554889,0.829109,0.2084529,-9.807381,0,0,27.95111,1,1,7974,996
8829,2023-01-20 10:50:16.741949,136770043,0,-0.03793498,0.009207164,-0.5039151,0.7381161,0.332046,-9.938249,0,0,27.95317,1,1,7974,996
8830,2023-01-20 10:50:16.781973,136810068,0,-0.03300439,-0.0269119,-0.4883984,0.7695266,0.3956389,-9.97704,0,0,27.95504,1,1,7974,996
8834,2023-01-20 10:50:16.821977,136850077,0,-0.07359622,-0.01373114,-0.4911647,0.8263995,0.2393714,-9.869668,0,0,27.95744,1,1,7974,996
8863,2023-01-20 10:50:16.862262,136890372,0,-0.06254712,0.02646056,-0.491765,0.7765415,0.232611,-10.0974,0,0,27.96017,1,1,7974,996
8865,2023-01-20 10:50:16.901964,136930083,0,-0.09452955,-0.03838924,-0.4694707,0.8663998,0.3526896,-9.949513,0,0,27.96291,1,1,7974,996
8893,2023-01-20 10:50:16.941953,136970081,0,-0.07087559,-0.100655,-0.4662101,0.9490331,0.3198861,-9.740689,0,0,27.96575,1,1,7974,996
8894,2023-01-20 10:50:16.981920,137010058,0,0.01370257,-0.08709314,-0.4856927,0.7523352,0.4572935,-9.81697,0,0,27.96828,1,1,7974,996
8898,2023-01-20 10:50:17.021940,137050076,0,0.03092743,-0.09879973,-0.5237099,0.7392057,0.5963669,-9.953465,0,0,27.97053,1,1,7974,996
8926,2023-01-20 10:50:17.062257,137090381,0,-0.0005762639,-0.009605617,-0.526487,0.7224776,0.4566191,-10.01031,0,0,27.9725,1,1,7975,996
8928,2023-01-20 10:50:17.101947,137130060,0,-0.114039,0.0313632,-0.4794732,0.7278572,0.5064717,-10.18364,0,0,27.97426,1,1,7975,996
8958,2023-01-20 10:50:17.141937,137170038,0,-0.09712216,0.06793458,-0.4335043,0.7551389,0.4992109,-9.863203,0,0,27.97645,1,1,7975,996
8959,2023-01-20 10:50:17.181989,137210079,0,-0.07738978,0.04995256,-0.4062601,0.7220083,0.6046963,-9.634454,0,0,27.97867,1,1,7975,996
8963,2023-01-20 10:50:17.222033,137250120,0,-0.1172511,0.07799144,-0.4097337,0.7832932,0.4815711,-9.389388,0,0,27.98129,1,1,7975,996
8991,2023-01-20 10:50:17.262273,137290363,0,-0.1000195,0.06572823,-0.4176552,0.7373196,0.603737,-9.560193,0,0,27.98379,1,1,7975,996
8993,2023-01-20 10:50:17.301966,137330060,0,-0.05437293,0.02099687,-0.4304835,0.9029478,0.5598102,-9.469282,0,0,27.98684,1,1,7975,996
9021,2023-01-20 10:50:17.342006,137370103,0,0.03649166,-0.1099565,-0.4452532,0.9727629,0.7143706,-9.691674,0,0,27.99015,1,1,7975,996
9022,2023-01-20 10:50:17.381994,137410094,0,-0.008387936,-0.1686384,-0.4822281,1.073948,0.5465088,-9.70063,0,0,27.99372,1,1,7975,996
9026,2023-01-20 10:50:17.422003,137450102,0,-0.06081181,-0.08168998,-0.5245475,0.9005235,0.5653037,-9.890451,0,0,27.9979,1,1,7975,996
9054,2023-01-20 10:50:17.462295,137490390,0,-0.001995964,-0.06502135,-0.5298458,0.9349759,0.5024433,-9.80162,0,0,28.00168,1,1,7975,996
9056,2023-01-20 10:50:17.501971,137530062,0,0.0621558,-0.02712218,-0.547985,0.7717175,0.657891,-9.846687,0,0,28.00625,1,1,7975,996
9086,2023-01-20 10:50:17.541986,137570072,0,0.02218986,0.1364008,-0.5690051,0.7112632,0.4839473,-9.703462,0,0,28.01068,1,1,7975,996
9087,2023-01-20 10:50:17.582000,137610082,0,-0.02762352,0.03464805,-0.5977435,0.8790669,0.5296519,-9.726227,0,0,28.0142,1,1,7975,996
9092,2023-01-20 10:50:17.622024,137650104,0,0.01651303,-0.1098175,-0.6219956,0.9217012,0.5209796,-9.519558,0,0,28.01755,1,1,7975,996
9122,2023-01-20 10:50:17.662596,137690677,0,0.009599835,-0.147245,-0.6397091,0.7885192,0.5750926,-9.566045,0,0,28.02042,1,1,7975,996
9124,2023-01-20 10:50:17.701988,137730069,0,0.09275553,-0.007482764,-0.637996,0.5565132,0.6152489,-9.614678,0,0,28.02337,1,1,7975,996
9152,2023-01-20 10:50:17.741971,137770052,0,0.06321508,0.05024155,-0.644277,0.6168944,0.7026588,-9.632179,0,0,28.02625,1,1,7975,996
9153,2023-01-20 10:50:17.781982,137810064,0,0.07637893,0.1013263,-0.6382799,0.4651967,0.6618612,-9.681039,0,0,28.0295,1,1,7975,996
9157,2023-01-20 10:50:17.820048,137850090,0,-0.03917242,0.09765684,-0.6516314,0.6240836,0.5606139,-9.649529,0,0,28.03293,1,1,7975,996
9186,2023-01-20 10:50:17.856748,137890379,0,-0.01400234,0.02365039,-0.6432013,0.7050966,0.7267267,-9.75802,0,0,28.03618,1,1,7975,996
9188,2023-01-20 10:50:17.892953,137930125,0,0.02500071,-0.05246302,-0.6433635,0.8337661,0.712154,-9.495698,0,0,28.03976,1,1,7975,996
9216,2023-01-20 10:50:17.929306,137970032,0,0.03749213,-0.0216974,-0.609755,0.7232199,0.7218041,-9.598133,0,0,28.04326,1,1,7975,996
9217,2023-01-20 10:50:17.965792,138010086,0,0.03602101,0.01967049,-0.6067641,0.7478895,0.6318021,-9.449818,0,0,28.04613,1,1,7975,996
9221,2023-01-20 10:50:18.002740,138050112,0,0.1401784,0.07442875,-0.6036493,0.612711,0.8356664,-9.457014,0,0,28.04861,1,1,7975,996
9250,2023-01-20 10:50:18.047348,138090372,0,0.01200577,0.1707266,-0.5972281,0.5764806,0.5455164,-9.489043,0,0,28.05035,1,1,7975,996
9252,2023-01-20 10:50:18.091302,138130042,0,-0.09504193,0.1178714,-0.6025409,0.6176023,0.6371512,-9.662798,0,0,28.05199,1,1,7975,996
9282,2023-01-20 10:50:18.135631,138170051,0,0.04321736,-0.0480741,-0.6045077,0.7248694,0.7080531,-9.601355,0,0,28.05301,1,1,7975,996
9283,2023-01-20 10:50:18.180035,138210127,0,0.0700194,-0.07061432,-0.6219618,0.5504833,0.6746847,-9.623659,0,0,28.05435,1,1,7975,996
9287,2023-01-20 10:50:18.221927,138250064,0,0.07917286,-0.02681533,-0.620147,0.4214082,0.6810974,-9.581858,0,0,28.05568,1,1,7975,996
9315,2023-01-20 10:50:18.262259,138290380,0,0.1501236,0.01796106,-0.6187471,0.3759626,0.7412221,-9.500784,0,0,28.05714,1,1,7975,996
9317,2023-01-20 10:50:18.301972,138330077,0,0.03395832,-0.009649235,-0.5831522,0.4485746,0.674502,-9.286114,0,0,28.05824,1,1,7975,996
9345,2023-01-20 10:50:18.341989,138370077,0,0.1002125,0.121367,-0.5776299,0.2634901,0.7466398,-9.21725,0,0,28.05869,1,1,7975,996
9346,2023-01-20 10:50:18.381994,138410066,0,0.04123103,0.1382671,-0.5505628,0.3255708,0.7698119,-9.282465,0,0,28.05827,1,1,7975,996
9350,2023-01-20 10:50:18.420060,138450084,0,0.03919777,0.1714842,-0.5195675,0.2497359,0.6393325,-9.390439,0,0,28.05883,1,1,7975,996
9378,2023-01-20 10:50:18.456805,138490417,0,0.09816476,0.1473718,-0.4646974,0.2980843,0.8546094,-9.543078,0,0,28.06029,1,1,7975,996
9380,2023-01-20 10:50:18.492942,138530084,0,-0.04685962,0.07981859,-0.3706652,0.3739809,0.8325526,-9.541067,0,0,28.06224,1,1,7975,996
9410,2023-01-20 10:50:18.529346,138570043,0,-0.1181363,-0.003696973,-0.2863507,0.396363,0.756891,-9.729412,0,0,28.06421,1,1,7975,996
9411,2023-01-20 10:50:18.565822,138610081,0,0.003362065,-0.05563734,-0.2032883,0.3275591,0.7819986,-9.730692,0,0,28.06546,1,1,7975,996
9416,2023-01-20 10:50:18.602496,138650094,0,-0.03895407,-0.04287598,-0.1398472,0.3872831,0.7840586,-9.620363,0,0,28.06629,1,1,7975,996
9446,2023-01-20 10:50:18.643087,138690699,0,-0.1204781,-0.08238444,-0.09125528,0.2700404,0.7232095,-9.737216,0,0,28.06743,1,1,7975,996
9448,2023-01-20 10:50:18.682499,138730124,0,-0.02903245,-0.1729711,-0.01748807,0.3229667,0.782892,-9.747178,0,0,28.06772,1,1,7975,996
9476,2023-01-20 10:50:18.722463,138770102,0,-0.1276038,-0.1917331,-0.01168446,0.3989097,0.7501681,-9.644174,0,0,28.06763,1,1,7975,996
9477,2023-01-20 10:50:18.762422,138810074,0,-0.0183308,-0.1177554,0.04971283,0.1886832,0.7844979,-9.604912,0,0,28.06869,1,1,7975,996
9481,2023-01-20 10:50:18.802431,138850097,0,-0.04352475,-0.04758631,0.07585266,0.2320675,0.7147853,-9.556894,0,0,28.06969,1,1,7975,996
9510,2023-01-20 10:50:18.842778,138890459,0,-0.09707429,0.006542314,0.07999472,0.2162916,0.6357122,-9.632324,0,0,28.07063,1,1,7975,996
9513,2023-01-20 10:50:18.882360,138930055,0,-0.002172237,-0.06880011,0.08047976,0.2726194,0.6923067,-9.582874,0,0,28.071,1,1,7975,996
9542,2023-01-20 10:50:18.922343,138970052,0,0.1158316,-0.06381235,0.03343358,0.3362959,0.675741,-9.651963,0,0,28.07113,1,1,7975,996
9543,2023-01-20 10:50:18.962350,139010073,0,0.1302568,-0.09538138,-0.05022765,0.4533031,0.7242468,-9.602565,0,0,28.07108,1,1,7975,996
9547,2023-01-20 10:50:19.002356,139050092,0,0.1491349,-0.2226862,-0.1552291,0.4422864,0.6641808,-9.653037,0,0,28.07138,1,1,7975,996
9575,2023-01-20 10:50:19.042662,139090384,0,0.1483068,-0.2043859,-0.2447993,0.4869449,0.584911,-9.595999,0,0,28.07218,1,1,7974,996
9576,2023-01-20 10:50:19.082357,139130065,0,0.04447009,-0.03590036,-0.2753592,0.1879576,0.5067137,-9.733382,0,0,28.07309,1,1,7974,996
9607,2023-01-20 10:50:19.122350,139170043,0,-0.06400838,0.03748244,-0.2705566,0.2292486,0.5131707,-9.451428,0,0,28.07402,1,1,7974,996
9608,2023-01-20 10:50:19.162382,139210061,0,0.03490241,0.03136763,-0.2180612,0.223358,0.7505462,-9.515182,0,0,28.07494,1,1,7974,996
9612,2023-01-20 10:50:19.202418,139250085,0,-0.01420006,-0.06723987,-0.1683554,0.4640694,0.6875163,-9.37687,0,0,28.0758,1,1,7974,996
9640,2023-01-20 10:50:19.242685,139290362,0,0.01228542,-0.0508785,-0.13256,0.451635,0.634994,-9.321258,0,0,28.0769,1,1,7974,996
9641,2023-01-20 10:50:19.282420,139330107,0,0.07492524,0.04435614,-0.1294505,0.2822987,0.7494903,-9.546875,0,0,28.07843,1,1,7974,996
9670,2023-01-20 10:50:19.322363,139370060,0,0.0103247,0.01323291,-0.0786858,0.2113704,0.7296641,-9.660358,0,0,28.08027,1,1,7974,996
9671,2023-01-20 10:50:19.362376,139410083,0,0.006357231,-0.02590735,-0.04528422,0.2387231,0.561293,-9.775456,0,0,28.08318,1,1,7974,996
9675,2023-01-20 10:50:19.402372,139450090,0,0.04832324,-0.02461855,-0.02045654,0.2507998,0.6140177,-9.60738,0,0,28.08633,1,1,7974,996
9703,2023-01-20 10:50:19.442677,139490417,0,0.1201663,0.03360944,-0.02110624,0.247277,0.6576464,-9.634491,0,0,28.08882,1,1,7974,996
9704,2023-01-20 10:50:19.482289,139530050,0,0.1347968,0.1161238,-0.01283692,0.2133571,0.6886778,-9.640451,0,0,28.09105,1,1,7974,996
9735,2023-01-20 10:50:19.522285,139570067,0,-0.02421513,0.1633478,-0.008031419,0.1817094,0.6406597,-9.68539,0,0,28.0934,1,1,7974,996
9736,2023-01-20 10:50:19.562281,139610084,0,-0.06974873,0.08552237,0.0007533666,0.1877226,0.6508948,-9.810941,0,0,28.0958,1,1,7974,996
9741,2023-01-20 10:50:19.602233,139650056,0,-0.1270895,-0.07942117,0.0350729,0.3894795,0.5943215,-9.620974,0,0,28.09875,1,1,7974,996
9771,2023-01-20 10:50:19.642797,139690621,0,-0.095455,-0.1153993,0.06500215,0.4747533,0.5096045,-9.580123,0,0,28.10172,1,1,7974,996
9772,2023-01-20 10:50:19.682226,139730051,0,0.03469523,-0.03991081,0.08626956,0.3564887,0.7453352,-9.445493,0,0,28.1041,1,1,7974,996
9801,2023-01-20 10:50:19.722261,139770087,0,0.1849881,0.04480844,0.08736391,0.2913901,0.9464767,-9.391397,0,0,28.10625,1,1,7974,996
9802,2023-01-20 10:50:19.762255,139810082,0,0.1779655,0.0702454,0.0813172,0.2677535,0.8538006,-9.47005,0,0,28.10847,1,1,7974,996
9806,2023-01-20 10:50:19.802250,139850078,0,-0.0722319,-0.005825609,0.07640988,0.4257035,0.5395101,-9.866793,0,0,28.11026,1,1,7974,996
9835,2023-01-20 10:50:19.842536,139890371,0,-0.1434711,-0.03872661,0.04982505,0.4511226,0.4793311,-9.974852,0,0,28.11254,1,1,7974,996
9836,2023-01-20 10:50:19.882224,139930066,0,0.02336241,0.01318997,0.03685104,0.3669023,0.6746449,-9.71469,0,0,28.11444,1,1,7974,996
9865,2023-01-20 10:50:19.922252,139970101,0,0.1761019,0.07971581,0.01028373,0.1428158,0.7836418,-9.81275,0,0,28.11591,1,1,7974,996
9866,2023-01-20 10:50:19.962214,140010070,0,0.09178363,-0.06625666,0.02021511,0.3216362,0.6465534,-9.979316,0,0,28.11663,1,1,7974,996
9870,2023-01-20 10:50:20.002242,140050104,0,-0.03209688,-0.1432725,0.03844498,0.3898649,0.5142195,-10.03408,0,0,28.1167,1,1,7974,996
9898,2023-01-20 10:50:20.042541,140090399,0,-0.09012252,-0.02815944,0.05099277,0.2671677,0.4864694,-9.862993,0,0,28.11637,1,1,7974,996
9899,2023-01-20 10:50:20.082227,140130081,0,0.0168458,0.07846639,0.05366846,0.173271,0.60185,-9.839895,0,0,28.11609,1,1,7974,996
9930,2023-01-20 10:50:20.122201,140170051,0,0.1016467,0.1323121,0.05522858,0.1566647,0.6924673,-9.757975,0,0,28.11747,1,1,7974,996
9931,2023-01-20 10:50:20.162223,140210069,0,0.02550749,0.05467647,0.05320873,0.2377681,0.6466808,-9.756663,0,0,28.11973,1,1,7974,996
9935,2023-01-20 10:50:20.202198,140250038,0,-0.04612535,-0.1435837,0.03180021,0.4310497,0.6339077,-9.828995,0,0,28.1224,1,1,7974,996
9963,2023-01-20 10:50:20.242562,140290377,0,0.03352839,-0.1949935,0.008084095,0.4755569,0.6934304,-9.750708,0,0,28.12513,1,1,7974,996
9967,2023-01-20 10:50:20.282259,140330048,0,0.1990507,-0.07443276,-0.005692589,0.2278318,0.7225752,-9.755868,0,0,28.12726,1,1,7974,996
9996,2023-01-20 10:50:20.322262,140370026,0,0.236701,0.1353614,-0.02621415,0.04376155,0.6380117,-9.847541,0,0,28.12901,1,1,7974,996
9997,2023-01-20 10:50:20.362313,140410051,0,0.1160337,0.1126384,-0.02364518,0.1437327,0.6221622,-9.8627,0,0,28.13013,1,1,7974,996
10001,2023-01-20 10:50:20.402357,140450071,0,0.01947853,-0.01743026,-0.03411152,0.182844,0.6294304,-10.0278,0,0,28.13176,1,1,7974,996
10029,2023-01-20 10:50:20.442630,140490346,0,-0.1170081,-0.08178501,-0.02864195,0.1588684,0.6267598,-9.865621,0,0,28.13391,1,1,7974,996
10030,2023-01-20 10:50:20.482380,140530098,0,-0.1445121,-0.08172348,-0.02088797,0.1439358,0.5463219,-10.04683,0,0,28.13639,1,1,7974,996
10061,2023-01-20 10:50:20.522331,140570051,0,-0.100012,-0.09251565,-0.02090643,0.2016733,0.5729895,-9.896579,0,0,28.13955,1,1,7974,996
10062,2023-01-20 10:50:20.562319,140610040,0,0.01212162,-0.242364,-0.02116774,0.3240839,0.6573615,-9.886321,0,0,28.14299,1,1,7974,996
10067,2023-01-20 10:50:20.602386,140650108,0,0.04623704,-0.2433514,-0.02773993,0.3324403,0.7554591,-9.715175,0,0,28.14639,1,1,7974,996
10097,2023-01-20 10:50:20.642892,140690599,0,-0.03307407,-0.215689,-0.03747956,0.2225431,0.6381602,-10.01091,0,0,28.14925,1,1,7974,996
10098,2023-01-20 10:50:20.682401,140730093,0,-0.1785371,-0.1467516,-0.009012837,0.1446163,0.6051649,-10.01869,0,0,28.15187,1,1,7974,996
10127,2023-01-20 10:50:20.722381,140770058,0,-0.2852491,-0.08642918,0.02707785,0.1051702,0.4862109,-9.979177,0,0,28.15508,1,1,7974,996
10128,2023-01-20 10:50:20.762397,140810058,0,-0.2552439,-0.094919,0.05590588,0.2406231,0.507412,-9.801604,0,0,28.15771,1,1,7974,996
10132,2023-01-20 10:50:20.802419,140850069,0,-0.08827429,-0.1860656,0.06489945,0.3880582,0.5912115,-9.713651,0,0,28.16055,1,1,7974,996
10161,2023-01-20 10:50:20.842712,140890410,0,-0.06863561,-0.08554184,0.06341118,0.1783589,0.5647802,-9.721684,0,0,28.16345,1,1,7974,996
10162,2023-01-20 10:50:20.882289,140930034,0,-0.07585263,-0.05234306,0.0702206,0.02273774,0.660185,-9.9647,0,0,28.16584,1,1,7974,996
10191,2023-01-20 10:50:20.922241,140970034,0,-0.1814789,-0.01014103,0.09506084,0.05009336,0.583899,-10.09268,0,0,28.16811,1,1,7974,996
10192,2023-01-20 10:50:20.962249,141010089,0,-0.1510285,-0.08701897,0.08817346,0.292135,0.5999615,-9.762904,0,0,28.16968,1,1,7974,996
10196,2023-01-20 10:50:21.002174,141050058,0,-0.02318934,-0.1699145,0.07476942,0.2987703,0.6947131,-9.704857,0,0,28.17144,1,1,7974,996
10224,2023-01-20 10:50:21.042494,141090355,0,0.02814249,-0.1299126,0.04980408,0.1976907,0.7090367,-9.651525,0,0,28.17386,1,1,7974,996
10225,2023-01-20 10:50:21.082236,141130075,0,0.05387633,-0.08176536,0.02717656,0.08686845,0.7874987,-9.879374,0,0,28.17628,1,1,7974,996
10256,2023-01-20 10:50:21.122224,141170041,0,-0.09911038,-0.1065977,0.03538323,0.1660322,0.6435807,-9.838184,0,0,28.17864,1,1,7974,996
10257,2023-01-20 10:50:21.162256,141210051,0,-0.03517855,-0.1309711,0.03560303,0.2349521,0.6059056,-9.795004,0,0,28.18183,1,1,7974,996
10260,2023-01-20 10:50:21.202323,141250098,0,-0.003708661,-0.1387762,0.04645047,0.2595462,0.7492721,-9.722587,0,0,28.18524,1,1,7974,996
10289,2023-01-20 10:50:21.242582,141290366,0,-0.006675335,-0.1820599,0.05275571,0.356288,0.7381644,-9.718843,0,0,28.18924,1,1,7974,996
10290,2023-01-20 10:50:21.282230,141330024,0,0.01785482,-0.1227878,0.06343836,0.3663999,0.5718557,-9.700639,0,0,28.19347,1,1,7974,996
10319,2023-01-20 10:50:21.322248,141370052,0,0.04657201,0.06520836,0.0693524,0.1544751,0.5042733,-9.857641,0,0,28.19668,1,1,7974,996
10320,2023-01-20 10:50:21.362263,141410077,0,0.04115014,0.1187948,0.07731411,0.1721598,0.6110725,-9.961529,0,0,28.19934,1,1,7974,996
10323,2023-01-20 10:50:21.402220,141450042,0,-0.02947846,-0.02709925,0.06666159,0.3831979,0.5618824,-9.825501,0,0,28.20206,1,1,7974,996
10352,2023-01-20 10:50:21.442591,141490399,0,0.03532352,-0.09250673,0.02700714,0.3994814,0.5167133,-9.784849,0,0,28.2054,1,1,7974,996
10353,2023-01-20 10:50:21.482262,141530055,0,0.02505239,0.07630432,-0.02599702,0.1722917,0.5167982,-9.915372,0,0,28.20835,1,1,7974,996
10384,2023-01-20 10:50:21.522285,141570064,0,-0.0791345,0.04194316,-0.08010777,0.1515989,0.5451015,-9.999871,0,0,28.2105,1,1,7974,996
10385,2023-01-20 10:50:21.562281,141610046,0,-0.07061937,-0.0756214,-0.1636181,0.4046547,0.4137516,-9.784741,0,0,28.2119,1,1,7974,996
10389,2023-01-20 10:50:21.602277,141650029,0,0.07071715,-0.1507694,-0.3087669,0.307928,0.4801455,-9.748955,0,0,28.21302,1,1,7974,996
10420,2023-01-20 10:50:21.642824,141690601,0,-0.006035121,0.03163832,-0.4357885,0.2007046,0.4765303,-9.61509,0,0,28.21396,1,1,7974,996
10421,2023-01-20 10:50:21.682227,141730029,0,0.07544502,-0.1649326,-0.6160452,0.3404866,0.5731205,-9.662778,0,0,28.21527,1,1,7974,996
10450,2023-01-20 10:50:21.722208,141770034,0,-0.06466094,0.1382475,-0.7503496,-0.05723618,0.4099801,-9.733762,0,0,28.21724,1,1,7974,996
10451,2023-01-20 10:50:21.762192,141810043,0,0.04593461,-0.07899407,-0.8727562,0.2880906,0.4142828,-9.787725,0,0,28.21984,1,1,7974,996
10454,2023-01-20 10:50:21.802167,141850041,0,-0.01945693,0.04681806,-0.9532962,0.1430411,0.553508,-9.529743,0,0,28.22283,1,1,7974,996
10484,2023-01-20 10:50:21.842484,141890364,0,0.06778879,-0.006534784,-1.048378,0.01930537,0.6379018,-9.72342,0,0,28.22624,1,1,7974,996
10485,2023-01-20 10:50:21.882165,141930050,0,0.04175432,-0.003338136,-1.085319,0.1057333,0.522255,-9.732407,0,0,28.22961,1,1,7974,996
10514,2023-01-20 10:50:21.922153,141970043,0,-0.1381216,0.0151356,-1.129102,-0.01754646,0.3149976,-9.959669,0,0,28.2331,1,1,7974,996
10515,2023-01-20 10:50:21.962151,142010047,0,0.07908578,-0.2307773,-1.176317,0.07082989,0.6300612,-9.794175,0,0,28.23679,1,1,7974,996
10518,2023-01-20 10:50:22.002139,142050039,0,-0.0380168,-0.04203151,-1.232461,-0.04144786,0.5004056,-9.778377,0,0,28.24063,1,1,7974,996
10547,2023-01-20 10:50:22.042475,142090354,0,0.06223792,-0.1756423,-1.333192,-0.1835893,0.6044388,-9.788872,0,0,28.24392,1,1,7974,996
10548,2023-01-20 10:50:22.082191,142130051,0,-0.08030577,-0.01704608,-1.35149,-0.1454656,0.5154544,-9.847154,0,0,28.2478,1,1,7974,996
10579,2023-01-20 10:50:22.122166,142170005,0,0.06022563,-0.0842016,-1.410689,-0.2260616,0.6160319,-9.746865,0,0,28.25113,1,1,7974,996
10580,2023-01-20 10:50:22.162233,142210052,0,0.03468425,0.07069983,-1.32848,-0.4504107,0.5935273,-10.05795,0,0,28.25341,1,1,7974,996
10583,2023-01-20 10:50:22.202249,142250050,0,-0.005258034,-0.2146783,-1.284771,-0.2470098,0.4361547,-9.706256,0,0,28.25484,1,1,7974,996
10612,2023-01-20 10:50:22.242533,142290348,0,0.05054918,-0.1489002,-1.187374,-0.5397183,0.3556493,-9.719773,0,0,28.25619,1,1,7974,996
10613,2023-01-20 10:50:22.282190,142330019,0,0.01882844,-0.08879148,-1.079456,-0.5033968,0.3777976,-9.696397,0,0,28.25735,1,1,7974,996
10642,2023-01-20 10:50:22.322202,142370045,0,0.02489191,-0.08920281,-0.9862662,-0.5722212,0.4960129,-9.892646,0,0,28.2586,1,1,7974,996
10643,2023-01-20 10:50:22.362222,142410079,0,0.1493765,-0.142232,-0.8388755,-0.5598453,0.4973054,-10.01586,0,0,28.26066,1,1,7974,996
10646,2023-01-20 10:50:22.402187,142450056,0,-0.0601163,-0.2737198,-0.7157211,-0.429224,0.4119712,-10.13537,0,0,28.26268,1,1,7974,996
10675,2023-01-20 10:50:22.442494,142490344,0,0.03561573,-0.2707904,-0.6037409,-0.4601484,0.4799943,-10.14184,0,0,28.26433,1,1,7974,996
10676,2023-01-20 10:50:22.482234,142530066,0,0.1153165,-0.2792059,-0.4531097,-0.6656982,0.5900322,-9.935813,0,0,28.26604,1,1,7974,996
10707,2023-01-20 10:50:22.522241,142570054,0,-0.01599015,-0.3138376,-0.33983,-0.6383731,0.5155907,-9.904509,0,0,28.26726,1,1,7974,996
10708,2023-01-20 10:50:22.562253,142610048,0,0.06695199,-0.2132893,-0.2474954,-0.5417299,0.5050085,-9.795216,0,0,28.26914,1,1,7974,996
10712,2023-01-20 10:50:22.602250,142650027,0,-0.0157013,-0.3579065,-0.1487011,-0.5476606,0.3040003,-9.838622,0,0,28.27183,1,1,7974,996
10743,2023-01-20 10:50:22.642582,142690366,0,0.008565133,-0.3438338,-0.07688968,-0.6316029,0.4468192,-9.802781,0,0,28.27483,1,1,7974,996
10744,2023-01-20 10:50:22.682346,142730137,0,-0.1708218,-0.4083836,-0.01449316,-0.4681992,0.3664678,-9.888819,0,0,28.27678,1,1,7974,996
10773,2023-01-20 10:50:22.722246,142770044,0,0.002329213,-0.2091877,0.05446018,-0.6129206,0.4582081,-9.85533,0,0,28.27881,1,1,7974,996
10774,2023-01-20 10:50:22.762227,142810032,0,-0.05194328,-0.1873225,0.1137005,-0.7614161,0.4680612,-9.792898,0,0,28.28123,1,1,7974,996
10777,2023-01-20 10:50:22.802244,142850056,0,-0.03750854,-0.09906858,0.1369641,-0.7649219,0.4673147,-9.809904,0,0,28.28361,1,1,7974,996
10807,2023-01-20 10:50:22.842541,142890365,0,-0.04222546,-0.09776972,0.178501,-0.7086198,0.396115,-9.665198,0,0,28.28555,1,1,7974,996
10808,2023-01-20 10:50:22.882188,142930025,0,-0.03605489,-0.1909551,0.202277,-0.5379757,0.4508439,-9.813089,0,0,28.28775,1,1,7974,996
10837,2023-01-20 10:50:22.922168,142970017,0,0.03958823,-0.1623885,0.2454607,-0.6392435,0.4352955,-9.798409,0,0,28.29057,1,1,7974,996
10838,2023-01-20 10:50:22.962236,143010098,0,0.07531355,-0.2897952,0.2689679,-0.5428082,0.3654369,-9.998483,0,0,28.29417,1,1,7974,996
10841,2023-01-20 10:50:23.002180,143050053,0,0.08146439,-0.03631357,0.2402893,-0.8468611,0.4150695,-10.06842,0,0,28.29801,1,1,7974,996
10870,2023-01-20 10:50:23.042482,143090334,0,0.02865165,-0.04437631,0.243582,-0.8991351,0.3665662,-10.10955,0,0,28.30145,1,1,7974,996
10871,2023-01-20 10:50:23.082259,143130091,0,-0.01241829,-0.06346833,0.1937944,-0.6921685,0.3366936,-10.1649,0,0,28.30416,1,1,7974,996
10903,2023-01-20 10:50:23.122233,143170045,0,-0.05535388,-0.03877862,0.1633928,-0.7820917,0.4024177,-10.26457,0,0,28.30759,1,1,7974,996
10904,2023-01-20 10:50:23.162266,143210057,0,-0.08058059,0.004482497,0.1735887,-0.9132016,0.4286617,-10.28123,0,0,28.3106,1,1,7974,996
10908,2023-01-20 10:50:23.202332,143250105,0,0.03597143,-0.2764728,0.1201703,-0.5613486,0.5075058,-10.13651,0,0,28.31364,1,1,7974,996
10937,2023-01-20 10:50:23.242583,143290367,0,-0.1498828,-0.1516533,0.115237,-0.896041,0.298546,-10.39673,0,0,28.31676,1,1,7974,996
10938,2023-01-20 10:50:23.282263,143330059,0,0.04221594,-0.07833055,0.1104624,-0.968738,0.4348027,-10.08346,0,0,28.32019,1,1,7974,996
10967,2023-01-20 10:50:23.322278,143370086,0,0.03957388,-0.2492319,0.1050547,-0.8754331,0.2748314,-10.26369,0,0,28.32356,1,1,7974,996
10968,2023-01-20 10:50:23.362249,143410068,0,0.0515433,0.02061708,0.1133964,-1.027746,0.3199052,-10.29622,0,0,28.32696,1,1,7974,996
10971,2023-01-20 10:50:23.402220,143450049,0,0.1005985,-0.1580397,0.08719681,-0.7707506,0.4298604,-10.18433,0,0,28.33005,1,1,7974,996
11000,2023-01-20 10:50:23.442574,143490398,0,0.05826824,-0.06703413,0.1032426,-1.09356,0.3193061,-10.34187,0,0,28.333,1,1,7974,996
11001,2023-01-20 10:50:23.482230,143530048,0,0.1397407,-0.1428161,0.09799423,-0.7872273,0.4382893,-10.14376,0,0,28.33626,1,1,7974,996
11031,2023-01-20 10:50:23.522249,143570061,0,0.1800549,-0.08058982,0.08281364,-0.9974067,0.4543215,-10.46164,0,0,28.34034,1,1,7974,996
11033,2023-01-20 10:50:23.562284,143610090,0,0.2024254,-0.05285669,0.06407423,-0.760677,0.4663835,-10.29632,0,0,28.34473,1,1,7974,996
11036,2023-01-20 10:50:23.602245,143650046,0,0.07221958,-0.03041953,0.06019254,-1.04917,0.2848389,-10.52404,0,0,28.34912,1,1,7974,996
11068,2023-01-20 10:50:23.642569,143690376,0,0.193376,-0.03422801,0.05919338,-0.9485671,0.4214586,-10.32929,0,0,28.35281,1,1,7974,996
11069,2023-01-20 10:50:23.682306,143730119,0,0.07881829,-0.1878275,0.09365488,-0.8395475,0.4174408,-10.33361,0,0,28.35613,1,1,7974,996
11097,2023-01-20 10:50:23.722208,143770026,0,0.02333198,-0.1687679,0.09197144,-0.8669965,0.4248637,-10.30628,0,0,28.35893,1,1,7974,996
11099,2023-01-20 10:50:23.762245,143810069,0,0.09463574,-0.002013532,0.06066418,-1.089911,0.575987,-10.24438,0,0,28.36169,1,1,7974,996
11102,2023-01-20 10:50:23.802270,143850099,0,-0.03807576,-0.08848099,0.04627691,-0.9256777,0.4549946,-10.21127,0,0,28.3652,1,1,7974,996
11131,2023-01-20 10:50:23.842539,143890375,0,-0.1153093,0.01074409,0.07017955,-1.214584,0.4750356,-10.50878,0,0,28.36939,1,1,7974,996
11136,2023-01-20 10:50:23.882187,143930030,0,-0.04589751,0.002254463,0.03205117,-0.9970354,0.6320134,-10.26533,0,0,28.37375,1,1,7974,996
11164,2023-01-20 10:50:23.922153,143970002,0,-0.3304715,0.1157065,0.03758911,-1.088632,0.4392591,-10.36077,0,0,28.37795,1,1,7974,996
11166,2023-01-20 10:50:23.962190,144010046,0,-0.1837434,0.01392068,0.01213928,-1.17464,0.576243,-10.33007,0,0,28.38188,1,1,7974,996
11169,2023-01-20 10:50:24.002191,144050052,0,-0.204291,0.09524433,0.03427906,-1.197818,0.4613846,-10.15415,0,0,28.38589,1,1,7974,996
11197,2023-01-20 10:50:24.042499,144090335,0,-0.2693373,0.01594253,-0.006926946,-1.107961,0.4545509,-10.20932,0,0,28.38998,1,1,7974,996
11199,2023-01-20 10:50:24.082206,144130017,0,-0.1336058,0.1513132,0.03067664,-1.374995,0.6560338,-9.966944,0,0,28.39407,1,1,7974,996
11229,2023-01-20 10:50:24.122247,144170034,0,0.0613198,-0.04050292,0.001834834,-1.177001,0.7222891,-9.786825,0,0,28.39799,1,1,7974,996
11231,2023-01-20 10:50:24.162288,144210050,0,-0.1108198,0.04648595,0.01572238,-1.152184,0.5306861,-10.02341,0,0,28.40181,1,1,7974,996
11234,2023-01-20 10:50:24.202299,144250039,0,0.007265587,-0.03259176,-0.0006350877,-1.253177,0.5718937,-10.05702,0,0,28.40559,1,1,7974,996
11262,2023-01-20 10:50:24.242590,144290356,0,0.03304013,0.06025953,0.03615402,-1.193777,0.6295773,-9.898337,0,0,28.40905,1,1,7974,996
11264,2023-01-20 10:50:24.282265,144330055,0,-0.108352,-0.1509167,-0.01521966,-1.01669,0.4442533,-9.8221,0,0,28.41238,1,1,7974,996
11292,2023-01-20 10:50:24.322229,144370044,0,-0.1780538,0.01890187,0.02208177,-1.327244,0.3694574,-9.55847,0,0,28.41607,1,1,7974,996
11294,2023-01-20 10:50:24.362231,144410071,0,-0.02853936,-0.1320844,-0.007493399,-1.110844,0.6929701,-9.270167,0,0,28.41938,1,1,7974,996
11297,2023-01-20 10:50:24.402168,144450030,0,-0.0877886,0.09706177,0.01324565,-1.411629,0.5862058,-9.935639,0,0,28.42297,1,1,7974,996
11325,2023-01-20 10:50:24.442508,144490344,0,0.02379944,0.04061563,-0.03596276,-1.362072,0.340901,-10.34215,0,0,28.42772,1,1,7974,996
11327,2023-01-20 10:50:24.482237,144530047,0,-0.2534854,0.1455142,-0.06536483,-1.343396,0.2964343,-10.35578,0,0,28.43245,1,1,7974,996
11359,2023-01-20 10:50:24.522280,144570063,0,-0.03852105,-0.01152129,-0.1485443,-1.531065,0.6717474,-9.978393,0,0,28.4365,1,1,7974,996
11361,2023-01-20 10:50:24.562281,144610038,0,-0.0009020141,0.231483,-0.1238885,-1.727118,0.6496486,-9.565891,0,0,28.4396,1,1,7974,996
11364,2023-01-20 10:50:24.602314,144650048,0,0.1092295,-0.08191136,-0.1010876,-1.476962,0.8919192,-9.481886,0,0,28.44298,1,1,7974,996
11395,2023-01-20 10:50:24.642632,144690399,0,0.1471598,0.06790279,-0.06919987,-1.61225,0.8133174,-9.730686,0,0,28.44647,1,1,7974,996
11397,2023-01-20 10:50:24.682330,144730129,0,0.02860267,0.1036436,-0.05786439,-1.655909,0.455904,-9.49547,0,0,28.44968,1,1,7974,996
11425,2023-01-20 10:50:24.722180,144770012,0,-0.1368697,-0.1067478,-0.1100871,-1.597818,0.5665362,-9.527327,0,0,28.45272,1,1,7974,996
11428,2023-01-20 10:50:24.762208,144810072,0,-0.1221884,0.1313742,-0.1501464,-1.665178,0.5101175,-9.822857,0,0,28.45668,1,1,7974,996
11431,2023-01-20 10:50:24.802188,144850083,0,-0.06010352,-0.1479696,-0.2218141,-1.399884,0.4426646,-9.58454,0,0,28.46102,1,1,7974,996
11460,2023-01-20 10:50:24.842488,144890383,0,-0.1469495,-0.02023841,-0.2042352,-1.745683,0.4329334,-9.796658,0,0,28.46423,1,1,7974,996
11462,2023-01-20 10:50:24.882149,144930044,0,-0.02381418,0.2371158,-0.1324748,-1.885172,0.6544894,-9.372375,0,0,28.46731,1,1,7974,996
11490,2023-01-20 10:50:24.922204,144970099,0,-0.104731,0.336125,-0.09399907,-1.905646,0.599923,-8.837896,0,0,28.47045,1,1,7974,996
11492,2023-01-20 10:50:24.962195,145010089,0,-0.06866597,0.6085204,-0.04215362,-1.787094,0.556827,-8.848048,0,0,28.47346,1,1,7974,996
11495,2023-01-20 10:50:25.002172,145050065,0,0.008893924,0.8748553,0.0008474294,-1.855868,0.5163509,-8.987095,0,0,28.47589,1,1,7974,996
11523,2023-01-20 10:50:25.042489,145090371,0,-0.01231223,0.9984596,0.06284977,-1.859977,0.4085183,-8.988964,0,0,28.47867,1,1,7974,996
11525,2023-01-20 10:50:25.082267,145130137,0,0.01710581,1.158926,0.06556325,-1.872026,0.51474,-8.636252,0,0,28.4814,1,1,7974,996
11555,2023-01-20 10:50:25.122200,145170058,0,0.05402755,1.177284,0.08475588,-1.568963,0.6337762,-8.495785,0,0,28.48399,1,1,7974,996
11557,2023-01-20 10:50:25.162206,145210053,0,0.05508992,1.23489,0.09749146,-1.446155,0.6492221,-8.147054,0,0,28.48677,1,1,7974,996
11561,2023-01-20 10:50:25.202218,145250054,0,0.06860061,1.1693,0.1386604,-1.172176,0.7621513,-8.233418,0,0,28.48961,1,1,7974,996
11589,2023-01-20 10:50:25.242532,145290370,0,0.04449844,1.271611,0.1448782,-1.594581,0.7840537,-8.289026,0,0,28.49266,1,1,7974,996
11591,2023-01-20 10:50:25.282228,145330069,0,-0.04152444,1.457473,0.08070189,-1.669703,0.4703655,-8.858942,0,0,28.49577,1,1,7974,996
11619,2023-01-20 10:50:25.322201,145370044,0,-0.05230507,1.403794,0.06302419,-1.330441,0.3698958,-9.307587,0,0,28.49864,1,1,7974,996
11621,2023-01-20 10:50:25.362289,145410135,0,0.1001215,1.152919,0.06545866,-0.8202938,0.5819236,-9.5538,0,0,28.5015,1,1,7974,996
11624,2023-01-20 10:50:25.402236,145450084,0,0.1610942,0.8666162,0.0535483,-0.5942399,0.3741561,-9.587062,0,0,28.50519,1,1,7974,996
11652,2023-01-20 10:50:25.442530,145490372,0,0.2176242,0.6285416,0.09903928,-0.5395962,0.2536168,-9.477548,0,0,28.50868,1,1,7974,996
11654,2023-01-20 10:50:25.482212,145530049,0,0.07589292,0.01708138,0.1816175,-0.06892104,0.04551549,-9.621663,0,0,28.51215,1,1,7974,996
11684,2023-01-20 10:50:25.522234,145570066,0,-0.03976737,-0.269842,0.1924512,-0.3681152,0.1904248,-9.744602,0,0,28.5152,1,1,7974,996
11686,2023-01-20 10:50:25.562254,145610080,0,-0.1324508,-0.2482524,0.1852627,-0.6370794,0.2964913,-9.589671,0,0,28.5174,1,1,7974,996
11689,2023-01-20 10:50:25.602232,145650053,0,-0.3232054,-0.2548665,0.1341292,-0.9842699,0.2518095,-9.375125,0,0,28.51907,1,1,7974,996
11720,2023-01-20 10:50:25.642608,145690434,0,-0.4707097,-0.1438582,0.1056455,-0.9661831,0.1910997,-9.209195,0,0,28.52034,1,1,7974,996
11722,2023-01-20 10:50:25.682233,145730064,0,-0.3473053,0.06767546,0.08920202,-1.226057,0.29466,-8.782907,0,0,28.52186,1,1,7974,996
11750,2023-01-20 10:50:25.722221,145770057,0,-0.2336215,0.1350403,0.04180802,-1.162643,0.6564112,-8.525373,0,0,28.52333,1,1,7974,996
11752,2023-01-20 10:50:25.762227,145810068,0,-0.1223841,0.2592694,0.02277611,-1.207831,0.8615208,-8.942569,0,0,28.52504,1,1,7974,996
11755,2023-01-20 10:50:25.802276,145850123,0,-0.03867984,0.2353288,0.03672415,-0.6750079,0.7695376,-9.453265,0,0,28.5269,1,1,7974,996
11784,2023-01-20 10:50:25.842515,145890371,0,0.0871563,0.313536,0.08231727,-0.9071043,0.6117303,-9.818589,0,0,28.52873,1,1,7974,996
11787,2023-01-20 10:50:25.882204,145930070,0,0.1966586,0.2989821,0.06782683,-0.9227647,0.7205343,-9.756427,0,0,28.53103,1,1,7974,996
11815,2023-01-20 10:50:25.922209,145970084,0,0.2655602,0.1768172,0.05017907,-0.6491839,0.666689,-10.61922,0,0,28.5338,1,1,7974,996
11817,2023-01-20 10:50:25.962190,146010075,0,0.3977397,0.1628348,0.1170814,-0.6654927,0.7882946,-10.86081,0,0,28.5366,1,1,7974,996
11820,2023-01-20 10:50:26.002163,146050056,0,0.4873859,-0.2369325,0.1764582,-0.5322899,0.5772398,-11.03831,0,0,28.54003,1,1,7974,996
11848,2023-01-20 10:50:26.042486,146090364,0,0.129037,-0.1493665,0.1882674,-0.586584,0.3501441,-10.80308,0,0,28.54339,1,1,7974,996
11850,2023-01-20 10:50:26.082235,146130098,0,-0.07867055,-0.2818218,0.1429285,-0.5247768,0.3488515,-11.2221,0,0,28.54617,1,1,7974,996
11880,2023-01-20 10:50:26.122201,146170049,0,-0.0891708,-0.4770413,0.09116627,-0.4376794,0.373391,-10.59375,0,0,28.54774,1,1,7974,996
11882,2023-01-20 10:50:26.162235,146210068,0,-0.3135139,-0.529394,0.04804432,-0.682482,0.3710599,-9.874237,0,0,28.54857,1,1,7974,996
11885,2023-01-20 10:50:26.202239,146250059,0,-0.2238538,-0.5286443,0.02253248,-0.746572,0.5957257,-9.572603,0,0,28.54922,1,1,7974,996
11913,2023-01-20 10:50:26.242541,146290375,0,-0.1497379,-0.3728844,-0.01431952,-1.072234,0.7011347,-9.645797,0,0,28.54891,1,1,7974,996
11915,2023-01-20 10:50:26.282207,146330056,0,-0.07367565,-0.08895438,-0.006313371,-1.057994,0.8669735,-10.1388,0,0,28.54803,1,1,7974,996
11943,2023-01-20 10:50:26.322199,146370062,0,-0.04956535,-0.3313151,-0.09633723,-0.6623141,0.8480305,-10.38879,0,0,28.54759,1,1,7974,996
11945,2023-01-20 10:50:26.362199,146410076,0,-0.3146832,-0.3260485,-0.1426909,-0.6021583,0.523137,-10.66888,0,0,28.54761,1,1,7974,996
11948,2023-01-20 10:50:26.402198,146450088,0,-0.2112763,-0.3751763,-0.2031928,-0.8889883,0.616316,-10.6498,0,0,28.5488,1,1,7974,996
11976,2023-01-20 10:50:26.442492,146490370,0,-0.05148495,-0.2772675,-0.1834022,-0.946341,0.7061889,-10.35954,0,0,28.55067,1,1,7974,996
11978,2023-01-20 10:50:26.482181,146530047,0,0.05997062,-0.487989,-0.1569946,-0.7360789,0.7943226,-10.25544,0,0,28.55285,1,1,7974,996
12008,2023-01-20 10:50:26.522260,146570114,0,0.06836967,-0.2335262,-0.1239038,-0.918518,0.7122476,-10.41748,0,0,28.55484,1,1,7974,996
12009,2023-01-20 10:50:26.562234,146610076,0,0.1665191,-0.2819956,-0.1279622,-0.8854625,0.6201237,-10.49542,0,0,28.55658,1,1,7974,996
12013,2023-01-20 10:50:26.602235,146650066,0,0.09374601,-0.2410394,-0.03433707,-0.7556723,0.6019132,-10.56803,0,0,28.55799,1,1,7974,996
12044,2023-01-20 10:50:26.642566,146690399,0,0.09478374,-0.361057,-0.04636699,-0.6906183,0.6441422,-10.69931,0,0,28.55946,1,1,7974,996
12046,2023-01-20 10:50:26.682395,146730230,0,0.06742237,-0.245082,-0.07916509,-0.5472907,0.5951124,-10.82912,0,0,28.5612,1,1,7974,996
12074,2023-01-20 10:50:26.722220,146770057,0,-0.05357628,-0.08343625,-0.07350624,-0.6800854,0.4605531,-11.45893,0,0,28.56228,1,1,7974,996
12075,2023-01-20 10:50:26.762244,146810083,0,-0.04090523,-0.2773271,-0.1243231,-0.4618046,0.5041264,-11.70727,0,0,28.56316,1,1,7974,996
12079,2023-01-20 10:50:26.802223,146850065,0,-0.06792068,-0.3873238,-0.1436097,-0.3927487,0.575831,-11.86961,0,0,28.56311,1,1,7974,996
12108,2023-01-20 10:50:26.842564,146890415,0,-0.0690196,-0.135791,-0.133884,-0.8037221,0.4581769,-12.04032,0,0,28.56342,1,1,7974,996
12110,2023-01-20 10:50:26.882212,146930073,0,-0.1930073,-0.4234878,-0.1546192,-0.4134913,0.4346483,-11.899,0,0,28.56414,1,1,7974,996
12138,2023-01-20 10:50:26.922188,146970059,0,-0.1828467,-0.09010686,-0.1147818,-0.7998312,0.4490759,-11.75562,0,0,28.56496,1,1,7974,996
12139,2023-01-20 10:50:26.962205,147010086,0,0.02325105,-0.2494737,-0.1243679,-0.5255028,0.6068844,-11.67904,0,0,28.56641,1,1,7974,996
12143,2023-01-20 10:50:27.002213,147050103,0,-0.007919661,-0.1250294,-0.1165169,-0.5358884,0.5525718,-11.77989,0,0,28.56754,1,1,7974,996
12171,2023-01-20 10:50:27.042486,147090372,0,0.1913843,-0.1550915,-0.1180998,-0.4772657,0.6250711,-11.76973,0,0,28.56903,1,1,7974,996
12173,2023-01-20 10:50:27.082194,147130076,0,-0.00514995,-0.01034025,-0.07085993,-0.602904,0.463081,-11.86689,0,0,28.57121,1,1,7974,996
12203,2023-01-20 10:50:27.122158,147170036,0,0.1382367,0.01477542,-0.04033581,-0.5683321,0.6894186,-11.4869,0,0,28.57349,1,1,7974,996
12204,2023-01-20 10:50:27.162252,147210127,0,-0.005968312,0.1229462,-0.004488703,-0.5691392,0.489577,-11.68254,0,0,28.57603,1,1,7974,996
12208,2023-01-20 10:50:27.202188,147250059,0,0.03575572,-0.03301636,0.006389351,-0.265345,0.681008,-11.24781,0,0,28.5788,1,1,7974,996
12236,2023-01-20 10:50:27.242519,147290384,0,0.03925315,0.1180187,0.01873379,-0.4850951,0.5914735,-11.2391,0,0,28.58219,1,1,7974,996
12238,2023-01-20 10:50:27.282186,147330045,0,0.01054121,0.04733299,0.06875942,-0.207756,0.6925662,-11.18609,0,0,28.58546,1,1,7974,996
12266,2023-01-20 10:50:27.322259,147370112,0,0.1468207,-0.05172493,0.02936864,-0.2688808,0.6805618,-11.0734,0,0,28.58798,1,1,7974,996
12267,2023-01-20 10:50:27.362241,147410088,0,0.09895315,0.2027408,0.085668,-0.3798204,0.5804344,-11.13373,0,0,28.59056,1,1,7974,996
12271,2023-01-20 10:50:27.402033,147450075,0,0.1605282,-0.1393266,0.04185071,-0.09710434,0.5660194,-11.243,0,0,28.59333,1,1,7974,996
12299,2023-01-20 10:50:27.438708,147490364,0,0.08299267,0.01126661,0.06205409,-0.2958444,0.5609613,-11.27652,0,0,28.59619,1,1,7974,996
12301,2023-01-20 10:50:27.474840,147530057,0,0.1647335,0.04558558,0.09848052,-0.2551564,0.6166305,-11.36583,0,0,28.59819,1,1,7974,996
12331,2023-01-20 10:50:27.511264,147570071,0,0.09045241,-0.03504314,0.1182341,-0.185384,0.565994,-11.43599,0,0,28.60012,1,1,7974,996
12332,2023-01-20 10:50:27.547683,147610078,0,0.1076487,-0.155722,0.1188001,-0.07673098,0.633005,-11.22655,0,0,28.60227,1,1,7974,996
12334,2023-01-20 10:50:27.584070,147650051,0,0.04588915,0.03572362,0.1330936,-0.3436479,0.5435073,-11.30798,0,0,28.60443,1,1,7974,996
12367,2023-01-20 10:50:27.622831,147690384,0,0.0627687,-0.1462394,0.1151395,-0.06617387,0.6500793,-11.03376,0,0,28.60671,1,1,7974,996
12369,2023-01-20 10:50:27.662565,147730121,0,-0.08952077,-0.002433354,0.1103189,-0.3554175,0.4750541,-11.05867,0,0,28.60876,1,1,7974,996
12397,2023-01-20 10:50:27.702502,147770061,0,-0.08773848,-0.006759691,0.06819022,-0.2748371,0.4959553,-10.91383,0,0,28.6109,1,1,7974,996
12398,2023-01-20 10:50:27.742489,147810051,0,-0.07633832,-0.08179071,0.03057927,-0.1643111,0.5446734,-10.8343,0,0,28.6128,1,1,7974,996
12400,2023-01-20 10:50:27.782484,147850049,0,-0.1451795,0.130395,0.01428927,-0.2684879,0.5386684,-10.74602,0,0,28.61489,1,1,7974,996
12431,2023-01-20 10:50:27.822832,147890413,0,-0.1093834,-0.1010011,-0.03747863,-0.0935936,0.4877595,-10.67347,0,0,28.61731,1,1,7974,996
12434,2023-01-20 10:50:27.862454,147930060,0,-0.2192837,0.2509063,-0.03906313,-0.4615537,0.3442501,-10.83792,0,0,28.62052,1,1,7974,996
12462,2023-01-20 10:50:27.902403,147970035,0,-0.07779755,0.1137988,-0.05906071,-0.08107481,0.5207593,-10.40999,0,0,28.62476,1,1,7974,996
12463,2023-01-20 10:50:27.942671,148010328,0,-0.04270471,0.02568856,-0.05395156,-0.05312432,0.5246381,-10.46439,0,0,28.62933,1,1,7974,996
12465,2023-01-20 10:50:27.982496,148050179,0,0.01084794,0.1962089,-0.03105303,-0.2165755,0.528243,-10.4577,0,0,28.63372,1,1,7974,996
12495,2023-01-20 10:50:28.022694,148090382,0,0.2130475,0.1129226,-0.05377823,-0.1446743,0.6248944,-10.43793,0,0,28.63761,1,1,7974,996
12497,2023-01-20 10:50:28.062375,148130053,0,0.05144011,0.2008049,-0.02688784,-0.2992774,0.3935671,-10.44596,0,0,28.64153,1,1,7974,996
12527,2023-01-20 10:50:28.102364,148170032,0,0.1374801,-0.006304395,-0.02636603,-0.06153536,0.6023324,-10.47926,0,0,28.64549,1,1,7974,996
12528,2023-01-20 10:50:28.142421,148210079,0,0.3164467,-0.08132717,-0.03733416,-0.1923739,0.7328411,-10.46926,0,0,28.64939,1,1,7974,996
12530,2023-01-20 10:50:28.182400,148250048,0,0.2534194,0.09844712,0.002278051,-0.3509951,0.6047544,-10.28145,0,0,28.65333,1,1,7974,996
12561,2023-01-20 10:50:28.222736,148290374,0,0.1928199,-0.1897273,-0.002794874,-0.100241,0.5791515,-10.10554,0,0,28.65739,1,1,7974,996
12563,2023-01-20 10:50:28.262424,148330052,0,-0.05236528,-0.1049578,0.05330105,-0.2121645,0.4485201,-10.21496,0,0,28.66104,1,1,7974,996
12591,2023-01-20 10:50:28.302464,148370082,0,-0.02010044,-0.1008793,0.06189603,0.0218095,0.6425166,-10.13614,0,0,28.66448,1,1,7974,996
12592,2023-01-20 10:50:28.342546,148410154,0,-0.01817392,-0.1309493,0.02394464,0.02183138,0.6296766,-10.00496,0,0,28.66841,1,1,7974,996
12594,2023-01-20 10:50:28.382465,148450063,0,-0.1269946,0.07439363,0.04203189,-0.3079743,0.5180355,-10.04991,0,0,28.67271,1,1,7974,996
12624,2023-01-20 10:50:28.425282,148490378,0,-0.1068984,0.02960935,0.06697307,-0.1604419,0.5602521,-9.88545,0,0,28.67739,1,1,7974,996
12626,2023-01-20 10:50:28.469294,148530042,0,-0.02636006,-0.1374017,0.04405443,-0.1518882,0.4970526,-10.15038,0,0,28.68199,1,1,7974,996
12656,2023-01-20 10:50:28.513784,148570136,0,-0.01019077,0.126275,0.05078843,-0.436013,0.5211557,-10.13529,0,0,28.68634,1,1,7974,996
12657,2023-01-20 10:50:28.558112,148610085,0,0.120451,-0.03369823,0.02838945,-0.128618,0.624619,-9.903817,0,0,28.69029,1,1,7974,996
12661,2023-01-20 10:50:28.602019,148650053,0,0.08486259,-0.185492,0.01558579,-0.03771826,0.5469316,-10.04417,0,0,28.69408,1,1,7974,996
12692,2023-01-20 10:50:28.638724,148690388,0,-0.01251722,-0.1072242,0.02224287,-0.04761593,0.4458145,-10.08905,0,0,28.6975,1,1,7974,996
12694,2023-01-20 10:50:28.674834,148730069,0,0.03055829,-0.1897254,-0.02900613,0.04292126,0.5307362,-9.984952,0,0,28.7009,1,1,7974,996
12722,2023-01-20 10:50:28.711228,148770063,0,0.09634469,-0.09680564,-0.07685429,-0.1376874,0.5390369,-9.952119,0,0,28.70429,1,1,7974,996
12723,2023-01-20 10:50:28.747630,148810065,0,0.01220838,0.1448547,-0.07130056,-0.239066,0.473191,-9.818511,0,0,28.70796,1,1,7974,996
12725,2023-01-20 10:50:28.784025,148850059,0,0.006298814,0.06149109,-0.08366942,-0.08782426,0.4582702,-9.585531,0,0,28.71155,1,1,7974,996
12756,2023-01-20 10:50:28.822725,148890365,0,-0.05890946,-0.06253683,-0.1066435,-0.06779021,0.340271,-9.222795,0,0,28.71476,1,1,7974,996
12760,2023-01-20 10:50:28.862446,148930131,0,-0.1501917,-0.002331503,-0.09154702,-0.2092628,0.2895565,-10.07012,0,0,28.71861,1,1,7974,996
12788,2023-01-20 10:50:28.902298,148970029,0,-0.08064252,0.01120045,-0.07625963,-0.1632395,0.4592577,-10.00615,0,0,28.7225,1,1,7974,996
12789,2023-01-20 10:50:28.942544,149010320,0,0.05662727,-0.1523433,-0.08614187,-0.02823702,0.5762949,-9.824822,0,0,28.72631,1,1,7974,996
12791,2023-01-20 10:50:28.982320,149050142,0,0.07890568,-0.23989,-0.08365433,0.08455903,0.5967561,-9.818249,0,0,28.73014,1,1,7974,996
12821,2023-01-20 10:50:29.022591,149090421,0,-0.05330772,-0.04791247,-0.0731764,-0.1586505,0.3983386,-10.02415,0,0,28.73427,1,1,7974,996
12823,2023-01-20 10:50:29.062235,149130043,0,0.008555388,0.04304205,-0.07261259,-0.1032666,0.4828928,-9.8052,0,0,28.7384,1,1,7974,996
12853,2023-01-20 10:50:29.102266,149170053,0,0.1306904,-0.07546899,-0.07576675,0.07274782,0.5372769,-9.804293,0,0,28.74246,1,1,7974,996
12854,2023-01-20 10:50:29.142321,149210086,0,-0.06241992,-0.1917985,-0.05347435,0.1137441,0.3222219,-9.896744,0,0,28.74635,1,1,7974,996
12857,2023-01-20 10:50:29.182393,149250136,0,-0.1255897,0.00674232,-0.03638179,-0.195412,0.322294,-9.943855,0,0,28.75074,1,1,7974,996
12887,2023-01-20 10:50:29.222624,149290373,0,0.01642321,0.1186744,-0.006210098,-0.1919352,0.5057746,-9.524247,0,0,28.75543,1,1,7974,996
12889,2023-01-20 10:50:29.262290,149330064,0,0.168821,0.1270016,0.02932657,-0.1431457,0.5173572,-9.556135,0,0,28.75925,1,1,7974,996
12917,2023-01-20 10:50:29.302275,149370075,0,0.08107173,-0.02901335,0.03119105,0.2806263,0.3422347,-9.665662,0,0,28.76315,1,1,7974,996
12918,2023-01-20 10:50:29.342257,149410083,0,-0.02519984,-0.2050483,0.06100909,0.2959131,0.1759686,-9.834805,0,0,28.76728,1,1,7974,996
12920,2023-01-20 10:50:29.382298,149450150,0,-0.1185182,-0.0468278,0.1078956,-0.07146721,0.2437371,-10.00592,0,0,28.77112,1,1,7974,996
12950,2023-01-20 10:50:29.422509,149490369,0,-0.100947,0.136299,0.114896,-0.2800268,0.3567131,-10.00621,0,0,28.77434,1,1,7974,996
12951,2023-01-20 10:50:29.462202,149530054,0,-0.09944747,-0.07710395,0.1082181,0.05289381,0.4031886,-9.776073,0,0,28.77741,1,1,7974,996
12982,2023-01-20 10:50:29.502227,149570071,0,-0.1204558,-0.2604392,0.1009333,0.1601813,0.3975176,-9.943388,0,0,28.78094,1,1,7974,996
12983,2023-01-20 10:50:29.542290,149610126,0,-0.1034491,-0.1519683,0.07945963,-0.07987579,0.3767663,-10.08084,0,0,28.78464,1,1,7974,996
12985,2023-01-20 10:50:29.582313,149650141,0,-0.08756263,0.06933635,0.02960515,-0.1770065,0.3137681,-10.02129,0,0,28.78897,1,1,7974,996
13018,2023-01-20 10:50:29.622558,149690385,0,-0.07389019,0.06823392,-0.00645311,-0.1955341,0.3428787,-9.857066,0,0,28.79414,1,1,7974,996
13019,2023-01-20 10:50:29.662226,149730057,0,-0.02590497,0.1017106,-0.04625288,-0.1345513,0.3449442,-9.646609,0,0,28.79922,1,1,7974,996
13048,2023-01-20 10:50:29.702257,149770091,0,-0.07077335,0.09763448,-0.074336,-0.09321915,0.2505872,-9.261214,0,0,28.80466,1,1,7974,996
13049,2023-01-20 10:50:29.742245,149810083,0,-0.06871203,0.009172989,-0.08043607,-0.001009117,0.2832139,-9.255868,0,0,28.81035,1,1,7974,996
13051,2023-01-20 10:50:29.782290,149850131,0,0.09413654,0.05254568,-0.09034861,-0.03887256,0.2874235,-9.422867,0,0,28.81539,1,1,7974,996
13082,2023-01-20 10:50:29.822520,149890368,0,0.1685969,0.09565383,-0.0825157,-0.03312289,0.2376394,-9.427,0,0,28.82063,1,1,7974,996
13083,2023-01-20 10:50:29.862228,149930085,0,0.02913791,-0.0704847,-0.07364615,0.1177847,0.06899539,-9.500267,0,0,28.82504,1,1,7974,996
13112,2023-01-20 10:50:29.902179,149970045,0,0.06341461,-0.0160902,-0.06627969,-0.08302203,0.07275439,-9.6484,0,0,28.82839,1,1,7974,996
13113,2023-01-20 10:50:29.942453,150010328,0,0.1800288,0.1188097,-0.05580942,-0.1592805,0.1405031,-9.749259,0,0,28.83122,1,1,7974,996
13115,2023-01-20 10:50:29.982260,150050144,0,0.07726588,-0.05042215,-0.01456426,0.05281088,0.002384837,-9.795774,0,0,28.83373,1,1,7974,996
13145,2023-01-20 10:50:30.022496,150090376,0,0.1797686,-0.05749329,0.01371188,0.0247798,0.1118805,-9.819024,0,0,28.83695,1,1,7974,996
13146,2023-01-20 10:50:30.062256,150130123,0,0.2063109,-0.03785662,0.07444476,-0.01852148,0.1332772,-9.702968,0,0,28.84057,1,1,7974,996
13177,2023-01-20 10:50:30.102184,150170037,0,0.09831388,-0.1029327,0.1174867,0.0256477,0.04444333,-9.724773,0,0,28.8448,1,1,7974,996
13178,2023-01-20 10:50:30.142231,150210070,0,0.1831401,0.01310645,0.1272152,-0.09271557,0.191702,-9.708578,0,0,28.84919,1,1,7974,996
13180,2023-01-20 10:50:30.182313,150250139,0,0.1939302,0.05964379,0.1374896,-0.1508476,0.1384882,-9.686507,0,0,28.85425,1,1,7974,996
13210,2023-01-20 10:50:30.222589,150290409,0,0.1176032,0.08189101,0.1484291,-0.1972996,0.1460427,-9.540257,0,0,28.85933,1,1,7974,996
13211,2023-01-20 10:50:30.262225,150330044,0,0.04037711,0.04930428,0.1560287,-0.06882592,0.1642742,-9.439216,0,0,28.86372,1,1,7974,996
13240,2023-01-20 10:50:30.302249,150370068,0,-0.04374912,-0.04275248,0.1542669,0.05821349,0.1919019,-9.42514,0,0,28.86775,1,1,7974,996
13241,2023-01-20 10:50:30.342277,150410095,0,-0.08667965,-0.09569661,0.1431428,0.05987944,0.1682615,-9.380147,0,0,28.87201,1,1,7974,996
13243,2023-01-20 10:50:30.382334,150450152,0,-0.0953789,-0.09510861,0.1265727,-0.01367577,0.184679,-9.39291,0,0,28.87614,1,1,7974,996
13273,2023-01-20 10:50:30.422554,150490373,0,-0.08125572,-0.01183735,0.09482886,-0.1245798,0.1766433,-9.526628,0,0,28.8808,1,1,7974,996
13274,2023-01-20 10:50:30.462239,150530060,0,-0.03491668,0.07445672,0.08181754,-0.194284,0.2126796,-9.553121,0,0,28.88476,1,1,7974,996
13306,2023-01-20 10:50:30.502259,150570083,0,-0.02594446,0.09964558,0.07805235,-0.2451154,0.1634515,-9.656289,0,0,28.88871,1,1,7974,996
13307,2023-01-20 10:50:30.542253,150610079,0,0.05822483,0.1043836,0.06957521,-0.2429008,0.1822889,-9.520733,0,0,28.89308,1,1,7974,996
13309,2023-01-20 10:50:30.582298,150650126,0,0.07383442,0.01594076,0.08405681,-0.1486557,0.1855078,-9.438438,0,0,28.89751,1,1,7974,996
13342,2023-01-20 10:50:30.622575,150690404,0,0.0697588,-0.07672916,0.1042859,-0.1226252,0.1892003,-9.43345,0,0,28.90212,1,1,7974,996
13343,2023-01-20 10:50:30.662241,150730071,0,0.08674685,-0.1584439,0.1023646,-0.04003105,0.1750172,-9.418236,0,0,28.90713,1,1,7974,996
13372,2023-01-20 10:50:30.702238,150770069,0,0.1857399,-0.1302752,0.09792726,-0.08159218,0.186907,-9.405283,0,0,28.9119,1,1,7974,996
13373,2023-01-20 10:50:30.742283,150810115,0,0.2084658,-0.0400494,0.06378665,-0.2257121,0.08172286,-9.415768,0,0,28.91626,1,1,7974,996
13375,2023-01-20 10:50:30.782298,150850131,0,0.201703,0.0399926,0.02651175,-0.3261085,0.06213927,-9.389491,0,0,28.92044,1,1,7974,996
13406,2023-01-20 10:50:30.822526,150890366,0,0.2012133,0.03036194,0.008894702,-0.226425,0.1180866,-9.478752,0,0,28.92445,1,1,7974,996
13407,2023-01-20 10:50:30.862215,150930069,0,0.1521557,0.01405175,-0.001424147,-0.1725381,0.1526934,-9.525952,0,0,28.92853,1,1,7974,996
13436,2023-01-20 10:50:30.902213,150970080,0,0.1221403,-0.03627036,-0.0291432,-0.08982539,0.1102323,-9.404568,0,0,28.93278,1,1,7974,996
13437,2023-01-20 10:50:30.942442,151010323,0,0.0924482,-0.07657067,-0.06443725,-0.02587674,0.06281304,-9.316772,0,0,28.93661,1,1,7974,996
13439,2023-01-20 10:50:30.982194,151050088,0,-0.001817295,-0.1306068,-0.09919634,0.007708378,-0.001077401,-9.426804,0,0,28.93995,1,1,7974,996
13469,2023-01-20 10:50:31.022490,151090370,0,-0.09622491,-0.1300255,-0.1088443,-0.07089738,-0.001171736,-9.528823,0,0,28.94321,1,1,7974,996
13470,2023-01-20 10:50:31.062295,151130140,0,-0.143382,-0.1314556,-0.1067468,-0.1103507,-0.00961039,-9.768019,0,0,28.94689,1,1,7974,996
13501,2023-01-20 10:50:31.102239,151170049,0,-0.1371067,-0.1038596,-0.1123089,-0.08178058,-0.04809735,-9.7746,0,0,28.95047,1,1,7974,996
13502,2023-01-20 10:50:31.142306,151210081,0,-0.1151912,-0.02821781,-0.1166163,-0.1867565,0.004219154,-9.784881,0,0,28.95408,1,1,7974,996
13504,2023-01-20 10:50:31.182384,151250123,0,-0.03557707,0.04706273,-0.1017502,-0.2981951,0.092943,-9.505081,0,0,28.95815,1,1,7974,996
13534,2023-01-20 10:50:31.222640,151290375,0,-0.004561548,0.0381257,-0.09446444,-0.2663504,0.1224433,-9.363168,0,0,28.96174,1,1,7974,996
13535,2023-01-20 10:50:31.262290,151330045,0,0.08582231,0.02460944,-0.08696492,-0.2116872,0.2511982,-9.184412,0,0,28.96585,1,1,7974,996
13564,2023-01-20 10:50:31.302288,151370063,0,0.1223788,-0.03690305,-0.06274149,-0.09033388,0.2317643,-9.198404,0,0,28.9706,1,1,7974,996
13565,2023-01-20 10:50:31.342284,151410079,0,-0.03468237,-0.1320833,-0.05779814,0.01110977,0.05610656,-9.42568,0,0,28.9756,1,1,7974,996
13567,2023-01-20 10:50:31.382326,151450141,0,-0.1618476,-0.09532882,-0.0527474,-0.03477476,-0.01420313,-9.750639,0,0,28.98079,1,1,7974,996
13597,2023-01-20 10:50:31.422582,151490410,0,-0.1618564,-0.009046275,-0.03583163,-0.1453726,0.09782879,-9.726857,0,0,28.9861,1,1,7974,996
13598,2023-01-20 10:50:31.462212,151530048,0,-0.07965224,0.02417453,-0.006958092,-0.3081531,0.09068542,-9.840994,0,0,28.99055,1,1,7974,996
13629,2023-01-20 10:50:31.502219,151570063,0,-0.1251176,0.06040485,0.04091024,-0.2948949,0.02963774,-9.690213,0,0,28.99385,1,1,7974,996
13630,2023-01-20 10:50:31.542231,151610083,0,-0.1285816,0.08108374,0.06697367,-0.2012374,0.1161843,-9.7459,0,0,28.99721,1,1,7974,996
13632,2023-01-20 10:50:31.582374,151650234,0,-0.1426479,0.05656542,0.09820446,-0.07270928,0.1932368,-9.598298,0,0,29.00132,1,1,7974,996
13665,2023-01-20 10:50:31.622527,151690387,0,-0.1774645,0.01040453,0.1131078,-0.001813055,0.1249536,-9.511886,0,0,29.00594,1,1,7974,996
13666,2023-01-20 10:50:31.662220,151730075,0,-0.1301314,0.03571021,0.1375335,-0.09944294,0.1632349,-9.461792,0,0,29.01073,1,1,7974,996
