LineNo,UTC_Approx,TimeUS,I,GyrX,GyrY,GyrZ,AccX,AccY,AccZ,EG,EA,T,GH,AH,GHz,AHz
360,2023-01-20 11:08:47.380903,161633484,0,-0.001451199,-0.001221376,8.746932E-06,0.02914294,0.1935869,-9.831985,0,0,29.98161,1,1,7973,996
894,2023-01-20 11:08:47.457253,161713852,0,-0.001402916,-0.0009453495,0.001057446,0.02192711,0.2000062,-9.819779,0,0,29.97864,1,1,7973,996
984,2023-01-20 11:08:47.495242,161753841,0,-0.0005029137,-0.0003143302,0.000383329,0.02829613,0.1980777,-9.82088,0,0,29.97729,1,1,7973,996
1066,2023-01-20 11:08:47.533916,161794551,0,-0.0006796979,-0.0002387102,0.000286763,0.02482848,0.1981474,-9.831035,0,0,29.97617,1,1,7973,996
1099,2023-01-20 11:08:47.575300,161838113,0,-0.0005869322,0.0001517746,0.000584645,0.01944864,0.2130157,-9.866254,0,0,29.97518,1,1,7973,996
1137,2023-01-20 11:08:47.627514,161890214,0,0.0003535557,-0.0006872854,0.0007358817,0.0225933,0.194846,-9.831451,0,0,29.97489,1,1,7973,996
1274,2023-01-20 11:08:47.673336,161933682,0,-0.001021887,-0.00031235,0.0005887875,0.02612048,0.2124987,-9.814281,0,0,29.97578,1,1,7973,996
1359,2023-01-20 11:08:47.715457,161973640,0,0.000646857,-0.0003630582,0.0009244242,0.02607254,0.202646,-9.83367,0,0,29.97652,1,1,7973,996
1455,2023-01-20 11:08:47.757596,162013615,0,-0.0006230533,-0.0001528808,0.0003468777,0.02408746,0.1911567,-9.840774,0,0,29.97785,1,1,7973,996
1570,2023-01-20 11:08:47.800184,162054026,0,-0.0008329656,-0.001545374,-0.0009835947,0.03024511,0.2117871,-9.835644,0,0,29.9797,1,1,7973,996
1821,2023-01-20 11:08:47.840710,162094650,0,-1.645284E-05,0.0003511587,0.0003703754,0.02233713,0.1941088,-9.843091,0,0,29.98156,1,1,7973,996
1851,2023-01-20 11:08:47.880047,162134082,0,-0.0002615725,-0.001623923,-7.326197E-05,0.02078746,0.1934167,-9.839675,0,0,29.98255,1,1,7973,996
1859,2023-01-20 11:08:47.920270,162174403,0,-0.0005270931,-0.0006844362,-0.0001865029,0.02394694,0.2089006,-9.840776,0,0,29.98254,1,1,7973,996
1896,2023-01-20 11:08:47.959880,162214109,0,-0.0008039455,-0.001001636,0.0002220828,0.015031,0.2109634,-9.830806,0,0,29.98289,1,1,7973,996
1904,2023-01-20 11:08:48.000129,162254455,0,-0.0009386868,-0.0007409749,0.0003072624,0.01691819,0.2009436,-9.849809,0,0,29.9836,1,1,7973,996
1913,2023-01-20 11:08:48.040210,162294534,0,-0.0006126239,-0.00125897,0.0003906342,0.02927472,0.1924267,-9.833747,0,0,29.98467,1,1,7973,996
1944,2023-01-20 11:08:48.079819,162334141,0,-0.001484816,0.000354261,0.0003505142,0.021749,0.2095877,-9.842103,0,0,29.98549,1,1,7973,996
1952,2023-01-20 11:08:48.119784,162374105,0,1.160188E-05,-0.000830671,0.0003424964,0.0197883,0.2073166,-9.838055,0,0,29.98654,1,1,7973,996
1986,2023-01-20 11:08:48.159771,162414090,0,-6.112843E-05,-0.001947522,-0.0002591329,0.03482515,0.1921639,-9.841337,0,0,29.98759,1,1,7973,996
2001,2023-01-20 11:08:48.200130,162454447,0,-0.0005887825,-0.0006512942,0.0004886087,0.0149291,0.1971938,-9.831856,0,0,29.98832,1,1,7973,996
2012,2023-01-20 11:08:48.240231,162494535,0,-0.0009129912,-0.001927122,0.0006542091,0.0124168,0.1972732,-9.825982,0,0,29.98921,1,1,7973,996
2043,2023-01-20 11:08:48.279809,162534099,0,0.0002548923,-0.0008500477,-0.00047686,0.02915704,0.191439,-9.829325,0,0,29.99024,1,1,7973,996
2050,2023-01-20 11:08:48.319823,162574100,0,-0.0003774249,-0.0007874116,0.000271181,0.02772256,0.203818,-9.824896,0,0,29.99159,1,1,7973,996
2081,2023-01-20 11:08:48.359840,162614104,0,0.0001115955,-0.001017419,-0.0004164163,0.02313698,0.2026477,-9.820299,0,0,29.9923,1,1,7974,996
2096,2023-01-20 11:08:48.400159,162654426,0,-0.001798211,-0.001264344,-0.0002776204,0.02583903,0.1993249,-9.833535,0,0,29.99272,1,1,7974,996
2109,2023-01-20 11:08:48.436641,162694534,0,-0.0008884428,-0.00165972,0.0002878286,0.02269809,0.2101772,-9.841975,0,0,29.99327,1,1,7974,996
2149,2023-01-20 11:08:48.472604,162734072,0,-0.000414735,-0.001255827,0.0003162476,0.03079359,0.2019262,-9.834851,0,0,29.99391,1,1,7974,996
2161,2023-01-20 11:08:48.509065,162774157,0,0.0002894654,-0.00155413,-0.00066225,0.02392749,0.1974778,-9.822506,0,0,29.99402,1,1,7974,996
2195,2023-01-20 11:08:48.545404,162814108,0,0.0003272839,-0.0007053912,0.0001394895,0.02522815,0.1935496,-9.835041,0,0,29.99402,1,1,7974,996
2209,2023-01-20 11:08:48.582077,162854426,0,-0.0002539266,0.0001162354,0.000272022,0.01558677,0.1985844,-9.831553,0,0,29.99402,1,1,7974,996
2230,2023-01-20 11:08:48.620402,162894529,0,5.026019E-05,-0.0006645511,0.0004200359,0.02373448,0.1988813,-9.837111,0,0,29.99359,1,1,7974,996
2267,2023-01-20 11:08:48.659960,162934079,0,-0.0007076685,-0.0008741177,-0.0002736427,0.03160147,0.2111376,-9.835176,0,0,29.99342,1,1,7974,996
2274,2023-01-20 11:08:48.699996,162974108,0,0.001768887,-0.001279982,0.0005279154,0.03171338,0.2048224,-9.828568,0,0,29.99349,1,1,7974,996
2309,2023-01-20 11:08:48.740017,163014121,0,-0.0009219683,-0.001110122,0.0005926578,0.02585713,0.2063067,-9.823132,0,0,29.99434,1,1,7974,996
2319,2023-01-20 11:08:48.780354,163054450,0,-0.001632564,-0.001588972,0.0005434283,0.02070272,0.1920557,-9.824525,0,0,29.99602,1,1,7974,996
2336,2023-01-20 11:08:48.820566,163094658,0,-0.0006638105,-0.0008081887,-0.0006679969,0.02641224,0.2094369,-9.833954,0,0,29.99779,1,1,7974,996
2375,2023-01-20 11:08:48.859984,163134075,0,-0.0003282879,-0.000450215,0.0002071272,0.03344978,0.2005054,-9.830058,0,0,29.99889,1,1,7974,996
2385,2023-01-20 11:08:48.900381,163174472,0,-0.0007761238,-0.00102566,0.0001046737,0.02737016,0.2107697,-9.836097,0,0,29.99954,1,1,7974,996
2420,2023-01-20 11:08:48.940020,163214111,0,-0.000382575,-0.0007353736,-0.0002386086,0.01864068,0.2060908,-9.846583,0,0,30.00033,1,1,7974,996
2425,2023-01-20 11:08:48.980325,163254415,0,-0.0008833267,-0.0005817991,0.0008733278,0.0147798,0.2028192,-9.83571,0,0,30.00103,1,1,7974,996
2435,2023-01-20 11:08:49.020441,163294534,0,-0.0001625753,-0.001366799,0.00045725,0.01633602,0.1950488,-9.851815,0,0,30.00161,1,1,7974,996
2468,2023-01-20 11:08:49.060038,163334138,0,-0.0001831679,-0.0009601103,0.0002388193,0.01643647,0.1993245,-9.830589,0,0,30.00211,1,1,7974,996
2474,2023-01-20 11:08:49.099993,163374100,0,-0.0004766326,-0.001241695,0.0007898192,0.02642032,0.2013207,-9.829451,0,0,30.00333,1,1,7974,996
2504,2023-01-20 11:08:49.139995,163414108,0,-0.0009719098,-0.0007495981,0.0004569086,0.02322096,0.2032739,-9.841802,0,0,30.00504,1,1,7974,996
2512,2023-01-20 11:08:49.180308,163454428,0,-0.0001090159,-0.001082406,0.001479602,0.02948637,0.2056006,-9.839004,0,0,30.00709,1,1,7974,996
2521,2023-01-20 11:08:49.222656,163494527,0,0.0001173903,-0.0004422063,0.0004753009,0.04186384,0.1856631,-9.82411,0,0,30.00911,1,1,7974,996
2550,2023-01-20 11:08:49.266586,163534091,0,-4.836362E-05,-0.001123304,0.0005255135,0.02869037,0.1940335,-9.842333,0,0,30.01069,1,1,7974,996
2555,2023-01-20 11:08:49.311085,163574167,0,-0.0006045182,-0.001060856,0.0007200601,0.02192833,0.1982885,-9.812589,0,0,30.01203,1,1,7974,996
2587,2023-01-20 11:08:49.355428,163614103,0,-3.592834E-05,-9.883499E-05,0.0002039039,0.02508604,0.192696,-9.824431,0,0,30.01324,1,1,7974,996
2594,2023-01-20 11:08:49.400179,163654424,0,-0.0004603998,-0.001857297,0.00041333,0.02562885,0.2007558,-9.83495,0,0,30.01412,1,1,7974,996
2601,2023-01-20 11:08:49.440316,163694587,0,0.0004141246,-0.0002434708,0.0002031345,0.02554417,0.2034721,-9.836676,0,0,30.01511,1,1,7974,996
2633,2023-01-20 11:08:49.479801,163734098,0,0.0006570825,-0.002508624,0.001561514,0.0291793,0.2015035,-9.84191,0,0,30.01601,1,1,7974,996
2637,2023-01-20 11:08:49.519794,163774117,0,-0.0006939563,0.0006572057,0.01404322,0.04309063,0.2037723,-9.834347,0,0,30.01622,1,1,7974,996
2668,2023-01-20 11:08:49.559774,163814123,0,-0.001761261,-0.001651669,0.000809351,0.04917238,0.2035113,-9.811683,0,0,30.01613,1,1,7974,996
2675,2023-01-20 11:08:49.600129,163854517,0,-0.002263684,-0.005483569,-0.01693793,0.05096144,0.1819351,-9.819968,0,0,30.01592,1,1,7974,996
2682,2023-01-20 11:08:49.636543,163894520,0,0.0006135237,-0.0009424618,-0.01996414,0.02914554,0.1965199,-9.834279,0,0,30.0164,1,1,7974,996
2711,2023-01-20 11:08:49.672572,163934101,0,-0.001972621,-0.00129594,-0.0052505,0.03214864,0.1792755,-9.827824,0,0,30.0176,1,1,7974,996
2715,2023-01-20 11:08:49.708985,163974104,0,0.001304758,0.003680807,0.01702104,-0.04428031,0.2479412,-9.831695,0,0,30.01932,1,1,7974,996
2746,2023-01-20 11:08:49.745388,164014095,0,0.002149225,-0.0004554513,0.01036168,0.0502571,0.1778404,-9.828186,0,0,30.0204,1,1,7974,996
2751,2023-01-20 11:08:49.782082,164054407,0,-0.001906198,-0.003433199,-0.01283428,0.08269278,0.1521127,-9.832251,0,0,30.02105,1,1,7974,996
2762,2023-01-20 11:08:49.820555,164094651,0,0.001161269,-0.001493239,-0.0078337,-0.0333528,0.249411,-9.814861,0,0,30.02148,1,1,7974,996
2792,2023-01-20 11:08:49.859986,164134091,0,-8.100561E-05,0.003485348,0.01489453,-0.03843677,0.2709419,-9.841372,0,0,30.02136,1,1,7974,996
2796,2023-01-20 11:08:49.900267,164174382,0,-0.002537415,0.001873435,0.02049858,0.0582945,0.1552258,-9.827378,0,0,30.02183,1,1,7974,996
2829,2023-01-20 11:08:49.939983,164214107,0,0.0009737817,0.002884606,0.001083372,0.07406654,0.1268207,-9.839067,0,0,30.02219,1,1,7974,996
2834,2023-01-20 11:08:49.980280,164254413,0,0.0001732233,0.0004265902,-0.03024835,0.02347365,0.1732181,-9.830686,0,0,30.02266,1,1,7974,996
2843,2023-01-20 11:08:50.020416,164294546,0,0.0008755557,-0.004363337,-0.03237243,0.009463165,0.2241719,-9.835116,0,0,30.02335,1,1,7974,996
2872,2023-01-20 11:08:50.059983,164334098,0,-0.00260266,-0.001492643,-0.01360185,0.02797085,0.2641036,-9.826089,0,0,30.02376,1,1,7974,996
2876,2023-01-20 11:08:50.099993,164374094,0,-0.000641034,0.003520378,0.01665542,0.02833071,0.2825258,-9.814587,0,0,30.02444,1,1,7974,996
2909,2023-01-20 11:08:50.139996,164414081,0,-0.001470994,0.001972176,0.03527914,0.007601036,0.2272552,-9.822611,0,0,30.02529,1,1,7974,996
2915,2023-01-20 11:08:50.180315,164454385,0,0.002512787,-0.001650576,0.03349638,0.007802728,0.1361134,-9.833948,0,0,30.02573,1,1,7974,996
2924,2023-01-20 11:08:50.220454,164494525,0,0.001050951,-0.00238897,0.01503772,0.006924093,0.1028239,-9.833168,0,0,30.02627,1,1,7974,996
2954,2023-01-20 11:08:50.260021,164534108,0,-1.600145E-06,-0.0008269749,-0.01719865,0.04172244,0.1644074,-9.836863,0,0,30.02712,1,1,7974,996
2958,2023-01-20 11:08:50.299986,164574089,0,-0.002056129,-0.001198703,-0.03626611,0.05107147,0.243614,-9.837363,0,0,30.02838,1,1,7974,996
2989,2023-01-20 11:08:50.339989,164614109,0,-0.002037805,-0.001440968,-0.03419719,0.04605028,0.2722958,-9.82566,0,0,30.02907,1,1,7973,996
2994,2023-01-20 11:08:50.380246,164654382,0,-0.001516687,-0.003752956,-0.01246372,0.02610028,0.26346,-9.816904,0,0,30.02965,1,1,7973,996
3003,2023-01-20 11:08:50.420369,164694523,0,-0.001767223,-0.00135077,0.01451487,0.01808543,0.234007,-9.827711,0,0,30.02954,1,1,7973,996
3034,2023-01-20 11:08:50.459895,164734067,0,0.003808134,-0.004717053,0.033958,0.01940038,0.1704826,-9.836811,0,0,30.02947,1,1,7973,996
3040,2023-01-20 11:08:50.500215,164774407,0,0.002408935,0.002174754,0.03374147,0.006760415,0.1253091,-9.822895,0,0,30.02962,1,1,7973,996
3071,2023-01-20 11:08:50.539896,164814107,0,0.001171284,0.001680118,0.01897964,0.008781081,0.1366666,-9.828325,0,0,30.02947,1,1,7973,996
3076,2023-01-20 11:08:50.580087,164854317,0,-0.001601105,0.002168814,-0.01455102,-0.005532852,0.1658959,-9.841374,0,0,30.02988,1,1,7973,996
3085,2023-01-20 11:08:50.620295,164894522,0,-0.003868484,0.001440908,-0.05198297,-0.01901085,0.1682662,-9.828403,0,0,30.02958,1,1,7973,996
3113,2023-01-20 11:08:50.659924,164934128,0,-0.009735993,-0.000666678,-0.1098307,-0.05112513,0.1059358,-9.814055,0,0,30.02881,1,1,7973,996
3118,2023-01-20 11:08:50.699909,164974090,0,0.002455519,-0.008397759,-0.07406051,-0.0008159486,0.1998524,-9.807416,0,0,30.02797,1,1,7973,996
3149,2023-01-20 11:08:50.739939,165014097,0,0.01892252,0.01030611,0.02006613,-0.1453702,0.0992095,-9.807571,0,0,30.02739,1,1,7973,996
3155,2023-01-20 11:08:50.780277,165054411,0,0.01267211,0.01293346,0.04170087,0.112244,0.3847974,-9.880686,0,0,30.02703,1,1,7973,996
3164,2023-01-20 11:08:50.820548,165094684,0,0.01392819,-0.01402165,-0.07677586,0.1120791,0.3626517,-9.813491,0,0,30.02755,1,1,7973,996
3192,2023-01-20 11:08:50.859918,165134080,0,0.006537697,0.005386167,0.02442797,-0.01122113,0.1785397,-9.757599,0,0,30.02912,1,1,7973,996
3198,2023-01-20 11:08:50.900188,165174376,0,-0.003365076,0.01548959,0.005718879,0.01963891,0.06121011,-9.846175,0,0,30.03084,1,1,7973,996
3231,2023-01-20 11:08:50.939957,165214170,0,0.003101386,-0.005286787,-0.02911237,-0.01779836,0.2089995,-9.862349,0,0,30.0326,1,1,7973,996
3236,2023-01-20 11:08:50.979975,165254214,0,-0.001035717,-0.006600044,0.04359318,-0.01503545,0.2578165,-9.853515,0,0,30.03386,1,1,7973,996
3244,2023-01-20 11:08:51.020293,165294542,0,0.0005607103,0.002370122,-0.03605445,0.1531452,0.1451835,-9.833493,0,0,30.03483,1,1,7973,996
3272,2023-01-20 11:08:51.059834,165334077,0,0.01031073,0.007245766,-0.008568366,-0.06864512,0.1477714,-9.784534,0,0,30.03596,1,1,7973,996
3277,2023-01-20 11:08:51.099905,165374143,0,-0.0157351,-0.004845225,0.0388043,0.01166668,0.2574285,-9.880337,0,0,30.03709,1,1,7973,996
3309,2023-01-20 11:08:51.139875,165414107,0,0.007474036,-0.01863172,-0.05924893,0.17465,0.2987826,-9.859634,0,0,30.03762,1,1,7973,996
3316,2023-01-20 11:08:51.180005,165454231,0,0.01146961,0.01353798,-0.01817156,-0.07662003,0.06471863,-9.783391,0,0,30.03819,1,1,7973,996
3325,2023-01-20 11:08:51.220303,165494535,0,-0.0006280064,0.005581588,0.05667188,-0.03618313,0.1796797,-9.844836,0,0,30.03918,1,1,7973,996
3353,2023-01-20 11:08:51.259837,165534086,0,-0.0005158081,0.0020699,-0.03505525,0.1531635,0.3712799,-9.868764,0,0,30.03983,1,1,7973,996
3358,2023-01-20 11:08:51.299845,165574112,0,0.005212928,-0.008059748,-0.05033785,-0.05117928,0.1088493,-9.795537,0,0,30.03996,1,1,7973,996
3389,2023-01-20 11:08:51.339815,165614099,0,-0.001403858,-4.347787E-05,0.01300655,-0.02919918,0.159087,-9.840495,0,0,30.04021,1,1,7973,996
3394,2023-01-20 11:08:51.379918,165654220,0,0.005115894,0.01470517,0.02998383,0.08294156,0.3006258,-9.84835,0,0,30.04069,1,1,7973,996
3403,2023-01-20 11:08:51.420209,165694523,0,-0.006331805,-0.01241089,-0.01714327,0.03454541,0.1339431,-9.832205,0,0,30.04084,1,1,7973,996
3433,2023-01-20 11:08:51.459761,165734082,0,0.00338456,-0.009795916,-0.06299561,0.04563902,0.1759234,-9.83761,0,0,30.04079,1,1,7973,996
3438,2023-01-20 11:08:51.499784,165774112,0,-0.004864422,0.02698598,0.05837737,-0.0396839,0.2535191,-9.83881,0,0,30.04,1,1,7973,996
3469,2023-01-20 11:08:51.539783,165814117,0,0.01078749,-0.002165407,0.0247525,0.06815349,0.1375249,-9.851595,0,0,30.0405,1,1,7973,996
3475,2023-01-20 11:08:51.579870,165854211,0,-0.008626744,0.0041722,-0.07868741,0.09230556,0.2038499,-9.823179,0,0,30.04121,1,1,7973,996
3484,2023-01-20 11:08:51.620178,165894521,0,-0.0001976275,-0.00564956,0.03815572,-0.1165182,0.2084098,-9.807404,0,0,30.04179,1,1,7973,996
3511,2023-01-20 11:08:51.659803,165934143,0,-0.001689769,-0.0003734585,0.01604007,0.07976669,0.2211179,-9.837415,0,0,30.04226,1,1,7973,996
3517,2023-01-20 11:08:51.699779,165974116,0,0.01408607,0.002982198,-0.05334065,0.1089138,0.2017452,-9.842278,0,0,30.0427,1,1,7973,996
3548,2023-01-20 11:08:51.739775,166014109,0,-0.005801002,0.007351119,0.04841631,-0.02429235,0.1352398,-9.801334,0,0,30.04323,1,1,7973,996
3553,2023-01-20 11:08:51.779849,166054180,0,-0.002973943,-0.01336767,-0.0001086721,0.06915202,0.2575522,-9.875951,0,0,30.04419,1,1,7973,996
3564,2023-01-20 11:08:51.820373,166094704,0,0.0133056,-0.01961194,-0.04061873,-0.01169853,0.1936991,-9.798539,0,0,30.04487,1,1,7973,996
3591,2023-01-20 11:08:51.859771,166134103,0,-0.009313296,0.01850414,0.02811828,0.01256243,0.09297828,-9.813939,0,0,30.04482,1,1,7973,996
3597,2023-01-20 11:08:51.899851,166174184,0,0.006049945,0.007417166,0.009863934,0.08485218,0.2573225,-9.829251,0,0,30.04473,1,1,7973,996
3630,2023-01-20 11:08:51.939789,166214123,0,-0.007474336,-0.006308259,-0.01042656,-0.0357835,0.1716018,-9.828914,0,0,30.04477,1,1,7973,996
3635,2023-01-20 11:08:51.979813,166254148,0,-0.00101478,-0.01094554,-0.03616023,0.05599007,0.2262788,-9.84804,0,0,30.04445,1,1,7973,996
3644,2023-01-20 11:08:52.020200,166294535,0,0.01116017,0.006196004,0.0156194,0.0502574,0.2049063,-9.797363,0,0,30.04395,1,1,7973,996
3672,2023-01-20 11:08:52.059762,166334094,0,-0.008377958,0.001234608,0.04536321,-0.02314567,0.1017428,-9.839213,0,0,30.04374,1,1,7973,996
3677,2023-01-20 11:08:52.099826,166374155,0,-0.003419138,-0.006675864,-0.02685865,0.1080489,0.3011564,-9.861191,0,0,30.04431,1,1,7973,996
3705,2023-01-20 11:08:52.139787,166414113,0,-0.009104385,-5.026226E-07,0.001081303,0.0287199,0.1994738,-9.831529,0,0,30.04398,1,1,7973,996
3708,2023-01-20 11:08:52.179809,166454132,0,0.009260628,-0.009147746,0.02843915,-0.05422399,0.08754692,-9.79925,0,0,30.04357,1,1,7973,996
3715,2023-01-20 11:08:52.220210,166494532,0,0.007383705,0.01566869,-0.006467625,0.08868545,0.2793015,-9.856749,0,0,30.04336,1,1,7973,996
3740,2023-01-20 11:08:52.259773,166534097,0,0.005661619,-0.0061562,0.03028968,0.05190538,0.2413726,-9.803711,0,0,30.04348,1,1,7973,996
3742,2023-01-20 11:08:52.299797,166574121,0,-0.0166678,-0.01192376,-0.03991033,0.0469532,0.09276946,-9.83969,0,0,30.04332,1,1,7973,996
3770,2023-01-20 11:08:52.339782,166614107,0,0.009035338,-0.00248728,0.001016369,-0.04951542,0.220209,-9.834842,0,0,30.0438,1,1,7974,996
3772,2023-01-20 11:08:52.379815,166654141,0,-0.0008192353,0.006126136,0.06483584,0.0505367,0.2171951,-9.874757,0,0,30.04403,1,1,7974,996
3778,2023-01-20 11:08:52.420193,166694525,0,-0.01204971,-0.006688109,-0.05812245,0.1793294,0.1837027,-9.834643,0,0,30.04391,1,1,7974,996
3805,2023-01-20 11:08:52.459755,166734097,0,-0.002633187,-0.009196815,-0.01125049,-0.1061826,0.1538755,-9.81627,0,0,30.04345,1,1,7974,996
3807,2023-01-20 11:08:52.499776,166774128,0,0.00937098,0.006211327,0.04980127,0.01153751,0.2246658,-9.851618,0,0,30.04313,1,1,7974,996
3835,2023-01-20 11:08:52.539779,166814142,0,0.004335677,0.006919718,-0.001723293,0.1624893,0.2480786,-9.872268,0,0,30.04357,1,1,7974,996
3837,2023-01-20 11:08:52.579721,166854094,0,-0.003356697,0.003089372,0.01399845,-0.06763855,0.0777521,-9.790033,0,0,30.0434,1,1,7974,996
3843,2023-01-20 11:08:52.620151,166894522,0,-0.006330786,-0.01576739,0.01945953,-0.002146272,0.2590981,-9.853494,0,0,30.04379,1,1,7974,996
3868,2023-01-20 11:08:52.659748,166934106,0,0.007506343,0.001655501,0.01654377,0.09364095,0.3357226,-9.855648,0,0,30.04409,1,1,7974,996
3870,2023-01-20 11:08:52.699762,166974107,0,0.002999166,0.006238787,0.008749658,0.002939183,0.02895508,-9.815721,0,0,30.04354,1,1,7974,996
3898,2023-01-20 11:08:52.739759,167014091,0,0.006205482,-0.005744935,-0.0141067,0.01080892,0.2003774,-9.821055,0,0,30.04286,1,1,7974,996
3900,2023-01-20 11:08:52.779790,167054109,0,-0.01856776,0.003474088,0.04516167,-0.0236607,0.3121043,-9.860498,0,0,30.04206,1,1,7974,996
3908,2023-01-20 11:08:52.820398,167094710,0,0.01205016,-0.01343176,-0.0005803964,0.06362584,0.1524847,-9.821192,0,0,30.04089,1,1,7974,996
3933,2023-01-20 11:08:52.859783,167134094,0,0.004616146,0.005439381,-0.03862292,0.02884975,0.1649583,-9.814716,0,0,30.04013,1,1,7974,996
3935,2023-01-20 11:08:52.899848,167174159,0,-0.01218016,0.01575005,0.0853636,-0.05545636,0.2157257,-9.808956,0,0,30.03904,1,1,7974,996
3965,2023-01-20 11:08:52.939799,167214109,0,0.01209855,-0.01756016,-0.004935112,0.09197996,0.2953729,-9.888831,0,0,30.03794,1,1,7974,996
3967,2023-01-20 11:08:52.979861,167254170,0,0.001558785,-0.007627115,-0.06677523,0.06704162,0.1590846,-9.801915,0,0,30.0368,1,1,7974,996
3973,2023-01-20 11:08:53.020228,167294543,0,-0.0007627456,0.01647916,0.0660537,-0.04227403,0.1229239,-9.826407,0,0,30.03562,1,1,7974,996
3998,2023-01-20 11:08:53.059768,167334096,0,-0.008518402,0.009114075,0.01387064,0.1145685,0.2776445,-9.865614,0,0,30.03463,1,1,7974,996
4000,2023-01-20 11:08:53.099771,167374111,0,0.01315172,-0.02664077,-0.04424933,0.01079823,0.2371463,-9.853504,0,0,30.03432,1,1,7974,996
4028,2023-01-20 11:08:53.139745,167414097,0,-0.01155984,-0.0124174,-0.004235181,-0.007123275,0.1113453,-9.785623,0,0,30.03422,1,1,7974,996
4031,2023-01-20 11:08:53.179741,167454106,0,0.004581838,0.01578287,0.03463708,0.07304829,0.2318558,-9.852408,0,0,30.03464,1,1,7974,996
4038,2023-01-20 11:08:53.220214,167494583,0,-0.005243143,0.01876417,0.03868163,-0.02359192,0.1881453,-9.838977,0,0,30.03466,1,1,7974,996
4063,2023-01-20 11:08:53.259833,167534198,0,0.002017315,-0.02271978,-0.07423017,0.06847782,0.1826628,-9.85642,0,0,30.03453,1,1,7974,996
4065,2023-01-20 11:08:53.299788,167574149,0,0.004921973,-0.007787523,3.878069E-05,0.02746872,0.2284448,-9.78382,0,0,30.03469,1,1,7974,996
4093,2023-01-20 11:08:53.339806,167614163,0,0.0001910887,0.02514037,0.09448078,-0.0182804,0.1679094,-9.845243,0,0,30.03547,1,1,7973,996
4095,2023-01-20 11:08:53.379895,167654248,0,-0.01026003,-0.001254737,-0.03013458,0.1582384,0.2086449,-9.854622,0,0,30.03687,1,1,7973,996
4101,2023-01-20 11:08:53.420276,167694635,0,0.01223744,-0.01967157,0.04632314,0.06358577,0.2042121,-9.870918,0,0,30.03878,1,1,7973,996
4128,2023-01-20 11:08:53.459765,167734140,0,0.014384,0.01295439,0.04258425,0.003669606,0.2369125,-9.830736,0,0,30.04058,1,1,7973,996
4130,2023-01-20 11:08:53.499775,167774166,0,-0.0127943,-0.03359485,-0.01954529,0.06766637,0.1448735,-9.806075,0,0,30.04256,1,1,7973,996
4158,2023-01-20 11:08:53.539754,167814162,0,-0.03416591,0.03841995,-0.003646484,0.1010923,0.2625524,-9.884767,0,0,30.0441,1,1,7973,996
4159,2023-01-20 11:08:53.579792,167854216,0,0.00980266,-0.01446018,0.03210186,-0.0235521,0.0971558,-9.815606,0,0,30.045,1,1,7973,996
4166,2023-01-20 11:08:53.620164,167894590,0,0.02625108,0.002776574,-0.01272863,0.05591079,0.1784214,-9.798595,0,0,30.04538,1,1,7973,996
4191,2023-01-20 11:08:53.659728,167934141,0,0.01229274,-0.01437433,-0.007814365,0.04916925,0.1218876,-9.856189,0,0,30.04543,1,1,7973,996
4193,2023-01-20 11:08:53.699772,167974172,0,-0.01742975,-0.02458656,-0.07154056,0.1430499,0.1927107,-9.648624,0,0,30.04531,1,1,7973,996
4221,2023-01-20 11:08:53.739774,168014161,0,-0.0385625,0.0331781,-0.1769322,0.02539366,0.4527861,-9.71129,0,0,30.0454,1,1,7973,996
4222,2023-01-20 11:08:53.779769,168054144,0,0.02317979,0.0511667,-0.07187977,0.0809264,0.2235549,-9.970129,0,0,30.04498,1,1,7973,996
4231,2023-01-20 11:08:53.820343,168094715,0,0.0360987,0.0005707151,-0.06988051,0.007465183,0.2054074,-9.899951,0,0,30.04404,1,1,7973,996
4256,2023-01-20 11:08:53.859788,168134166,0,0.06376363,0.03760998,0.0358597,-0.02272965,0.161901,-9.882804,0,0,30.04288,1,1,7973,996
4258,2023-01-20 11:08:53.899973,168174358,0,0.1153041,0.01888965,0.009426028,0.117791,0.4780657,-9.998712,0,0,30.04267,1,1,7973,996
4289,2023-01-20 11:08:53.939777,168214168,0,0.1246647,0.08349986,0.04074999,-0.04277653,0.452228,-10.27074,0,0,30.04331,1,1,7973,996
4290,2023-01-20 11:08:53.979768,168254166,0,0.2038771,-0.07272422,0.06068427,0.05080735,0.3177003,-10.41033,0,0,30.04357,1,1,7973,996
4297,2023-01-20 11:08:54.020197,168294601,0,0.05135811,-0.1064533,0.05817718,-0.02043811,0.005059381,-10.93821,0,0,30.04363,1,1,7973,996
4323,2023-01-20 11:08:54.059744,168334153,0,-0.1194533,-0.05310968,0.08186632,-0.02098733,0.08118994,-11.58231,0,0,30.0429,1,1,7973,996
4325,2023-01-20 11:08:54.099747,168374161,0,-0.1499107,0.1153347,0.07262492,-0.123357,0.1450931,-11.80135,0,0,30.04202,1,1,7973,996
4353,2023-01-20 11:08:54.139734,168414153,0,-0.02734815,0.1974793,0.06934971,-0.0311402,0.3257929,-11.90206,0,0,30.04202,1,1,7973,996
4355,2023-01-20 11:08:54.179779,168454203,0,-0.005402568,0.01004442,0.04825143,0.1542818,0.1929255,-11.6574,0,0,30.04197,1,1,7973,996
4363,2023-01-20 11:08:54.220145,168494567,0,-0.1842322,-0.03046178,-0.002298384,0.169324,0.05379869,-11.32387,0,0,30.04204,1,1,7973,996
4388,2023-01-20 11:08:54.259746,168534158,0,-0.03555708,-0.09522762,-0.04281894,0.2707626,0.2962199,-10.93644,0,0,30.04193,1,1,7973,996
4390,2023-01-20 11:08:54.299772,168574174,0,-0.01281511,-0.2789303,-0.06383917,0.3808606,0.1288697,-10.66491,0,0,30.04219,1,1,7973,996
4418,2023-01-20 11:08:54.339805,168614198,0,0.02897047,-0.2469762,-0.1023547,0.2274764,0.1925212,-10.37023,0,0,30.04241,1,1,7973,996
4419,2023-01-20 11:08:54.379790,168654173,0,0.1633251,-0.09402183,-0.1572059,0.06445627,0.2681758,-9.94339,0,0,30.04177,1,1,7973,996
4426,2023-01-20 11:08:54.420192,168694577,0,0.1496882,-0.01384051,-0.1897529,0.03584338,0.2108823,-9.855503,0,0,30.04099,1,1,7973,996
4453,2023-01-20 11:08:54.459757,168734157,0,-0.01947877,-0.05908535,-0.1654926,0.1546788,0.2790408,-9.737042,0,0,30.0406,1,1,7973,996
4455,2023-01-20 11:08:54.499743,168774158,0,-0.166372,-0.1738979,-0.1316595,0.3812343,0.2319363,-9.508901,0,0,30.0404,1,1,7973,996
4483,2023-01-20 11:08:54.539719,168814149,0,-0.008845395,-0.1312682,-0.05547677,0.3423282,0.3960082,-9.061595,0,0,30.04149,1,1,7973,996
4484,2023-01-20 11:08:54.579741,168854186,0,-0.03130548,-0.09894926,0.002607397,0.391568,0.4869172,-9.037861,0,0,30.04262,1,1,7973,996
4491,2023-01-20 11:08:54.620139,168894589,0,-0.1251825,0.03019118,0.02241949,0.208738,0.4497703,-9.519341,0,0,30.0424,1,1,7973,996
4516,2023-01-20 11:08:54.659734,168934177,0,-0.1071414,0.08207099,0.08691689,0.05748277,0.5234408,-9.81643,0,0,30.04233,1,1,7973,996
4518,2023-01-20 11:08:54.699717,168974154,0,-0.1924431,0.1843074,0.1033722,0.07429235,0.4957584,-9.935801,0,0,30.04222,1,1,7973,996
4546,2023-01-20 11:08:54.739766,169014196,0,-0.2264476,0.2956867,0.08587223,0.1485122,0.5258979,-10.11404,0,0,30.04269,1,1,7973,996
4547,2023-01-20 11:08:54.779752,169054176,0,-0.2241558,0.2025602,0.09305688,0.432395,0.5701567,-9.777184,0,0,30.0437,1,1,7973,996
4556,2023-01-20 11:08:54.820311,169094729,0,-0.2304489,0.05090653,0.142137,0.6383857,0.4279495,-9.593777,0,0,30.04474,1,1,7973,996
4581,2023-01-20 11:08:54.859749,169134162,0,-0.2430651,-0.002969695,0.1920373,0.548372,0.2556928,-9.426939,0,0,30.04657,1,1,7973,996
4583,2023-01-20 11:08:54.899756,169174165,0,-0.1401799,0.126333,0.1949482,0.466913,0.268846,-9.249981,0,0,30.04868,1,1,7973,996
4613,2023-01-20 11:08:54.939779,169214184,0,0.03359959,0.1474478,0.146247,0.4585501,0.4653081,-9.246511,0,0,30.05077,1,1,7973,996
4614,2023-01-20 11:08:54.979783,169254183,0,0.01011158,0.08775808,0.1641262,0.4367119,0.4165671,-9.46564,0,0,30.05211,1,1,7973,996
4621,2023-01-20 11:08:55.020219,169294615,0,-0.0615242,0.03841443,0.1681465,0.6512362,0.2854195,-9.40474,0,0,30.05203,1,1,7973,996
4646,2023-01-20 11:08:55.059751,169334143,0,0.001784793,0.09787529,0.169605,0.6550374,0.3710598,-9.395478,0,0,30.05203,1,1,7973,996
4648,2023-01-20 11:08:55.099827,169374215,0,0.09692521,0.1456577,0.1419953,0.5501382,0.4366059,-9.448453,0,0,30.05328,1,1,7973,996
4676,2023-01-20 11:08:55.139788,169414172,0,0.02814339,0.1307691,0.1312176,0.5481417,0.3057268,-9.509458,0,0,30.05524,1,1,7973,996
4678,2023-01-20 11:08:55.179786,169454166,0,-0.000812452,0.005396011,0.1049681,0.6135759,0.223849,-9.571012,0,0,30.05692,1,1,7973,996
4686,2023-01-20 11:08:55.220207,169494586,0,0.01664875,0.1429041,0.07894963,0.451186,0.2731375,-9.729609,0,0,30.05867,1,1,7973,996
4711,2023-01-20 11:08:55.259811,169534192,0,-0.03997792,0.2627289,0.05391169,0.3371182,0.2259218,-9.683956,0,0,30.0607,1,1,7973,996
4713,2023-01-20 11:08:55.299785,169574168,0,-0.08674292,0.2354779,0.03351567,0.4440905,0.2631923,-9.555283,0,0,30.06302,1,1,7973,996
4741,2023-01-20 11:08:55.339779,169614165,0,-0.1206884,0.09733339,0.001590393,0.5519167,0.1099011,-9.437287,0,0,30.06446,1,1,7973,996
4742,2023-01-20 11:08:55.379792,169654180,0,-0.0279632,-0.1863437,-0.04618907,0.6067036,0.2684088,-9.470938,0,0,30.06565,1,1,7973,996
4749,2023-01-20 11:08:55.420228,169694623,0,0.1005258,-0.3225588,-0.1306265,0.6054852,0.4172035,-9.897705,0,0,30.0671,1,1,7973,996
4776,2023-01-20 11:08:55.459753,169734158,0,0.1062421,-0.2419534,-0.2161844,0.4546941,0.3139035,-10.09196,0,0,30.06887,1,1,7973,996
4780,2023-01-20 11:08:55.500043,169774460,0,0.0814463,-0.1271204,-0.2754547,0.4080922,0.2400737,-10.06584,0,0,30.07051,1,1,7973,996
4808,2023-01-20 11:08:55.539742,169814170,0,0.1621907,-0.06562713,-0.3013315,0.4025921,0.2671693,-9.836964,0,0,30.0716,1,1,7973,996
4809,2023-01-20 11:08:55.579782,169854220,0,0.219584,0.03694749,-0.3218042,0.3167001,0.2999684,-9.685925,0,0,30.07186,1,1,7973,996
4816,2023-01-20 11:08:55.620152,169894590,0,0.249575,0.1136134,-0.3154228,0.292176,0.2407089,-9.562421,0,0,30.07118,1,1,7973,996
4841,2023-01-20 11:08:55.659715,169934142,0,0.2579959,0.1692578,-0.282348,0.2683204,0.2674704,-9.55885,0,0,30.07015,1,1,7973,996
4843,2023-01-20 11:08:55.699756,169974171,0,0.2570803,0.1407614,-0.2130677,0.3457801,0.2712406,-9.59888,0,0,30.06914,1,1,7973,996
4871,2023-01-20 11:08:55.739807,170014211,0,0.1483001,-0.02388583,-0.1821683,0.4562734,0.1386524,-9.773005,0,0,30.06854,1,1,7973,996
4872,2023-01-20 11:08:55.779771,170054163,0,0.1545006,-0.08211467,-0.1539822,0.3141379,0.1965851,-9.978206,0,0,30.06833,1,1,7973,996
4881,2023-01-20 11:08:55.820331,170094718,0,0.2649294,-0.03877383,-0.165981,0.2705184,0.3384283,-10.03668,0,0,30.0688,1,1,7973,996
4906,2023-01-20 11:08:55.859756,170134144,0,0.2272474,-0.05390169,-0.1846737,0.2360261,0.205543,-10.04339,0,0,30.06889,1,1,7973,996
4908,2023-01-20 11:08:55.899851,170174240,0,0.1275321,-0.05758975,-0.1786592,0.249744,0.1529882,-10.02554,0,0,30.06944,1,1,7973,996
4938,2023-01-20 11:08:55.939792,170214182,0,-0.005447826,-0.1021638,-0.1616802,0.3406223,0.04614912,-10.0119,0,0,30.06998,1,1,7973,996
4939,2023-01-20 11:08:55.979792,170254183,0,-0.1344117,-0.1374682,-0.1759435,0.3746029,-0.03839086,-9.703098,0,0,30.07068,1,1,7973,996
4946,2023-01-20 11:08:56.020216,170294607,0,-0.06341298,0.06808112,-0.197716,0.1762585,0.2026281,-9.501766,0,0,30.07191,1,1,7973,996
4971,2023-01-20 11:08:56.059785,170334173,0,0.02859759,0.1144255,-0.1883098,0.1185665,0.202872,-9.355084,0,0,30.07371,1,1,7973,996
4973,2023-01-20 11:08:56.099786,170374171,0,0.106853,0.05569243,-0.154491,0.3104605,0.267989,-9.411281,0,0,30.07518,1,1,7973,996
5001,2023-01-20 11:08:56.139788,170414171,0,0.1448531,-0.04489239,-0.08659189,0.529835,0.2323928,-9.654931,0,0,30.07609,1,1,7973,996
5003,2023-01-20 11:08:56.179790,170454170,0,0.06795307,-0.2060014,0.02288186,0.4701394,0.1644819,-9.658872,0,0,30.07664,1,1,7973,996
5011,2023-01-20 11:08:56.220242,170494621,0,-0.0310413,-0.1618877,0.10412,0.2943129,0.08729697,-9.700935,0,0,30.07745,1,1,7973,996
5036,2023-01-20 11:08:56.259780,170534160,0,-0.05492002,-0.0111015,0.1396505,0.2347399,0.08009122,-9.874128,0,0,30.07837,1,1,7973,996
5038,2023-01-20 11:08:56.299789,170574170,0,-0.03894417,0.01145149,0.1808068,0.2841016,0.08982213,-9.865387,0,0,30.07928,1,1,7973,996
5066,2023-01-20 11:08:56.339787,170614169,0,-0.02520331,-0.05753708,0.2312757,0.3027634,0.1213622,-9.966683,0,0,30.08122,1,1,7974,996
5067,2023-01-20 11:08:56.379822,170654205,0,-0.01868721,-0.07312419,0.2670773,0.4036889,0.08701188,-10.04465,0,0,30.08236,1,1,7974,996
5074,2023-01-20 11:08:56.420202,170694591,0,-0.1156632,-0.161183,0.27658,0.5344852,0.02588108,-10.23471,0,0,30.08322,1,1,7974,996
5101,2023-01-20 11:08:56.459760,170734162,0,-0.1500606,-0.177287,0.2619151,0.5213259,-0.02214013,-10.25939,0,0,30.08346,1,1,7974,996
5102,2023-01-20 11:08:56.499766,170774181,0,-0.1444179,-0.0239571,0.2336216,0.2977983,-0.01100078,-10.34288,0,0,30.08439,1,1,7974,996
5131,2023-01-20 11:08:56.539775,170814203,0,-0.04156749,0.1496272,0.2185203,0.2047482,0.04951888,-10.34151,0,0,30.08549,1,1,7974,996
5132,2023-01-20 11:08:56.579732,170854173,0,0.03930171,0.2387277,0.1833235,0.2731028,0.1136276,-10.26128,0,0,30.08681,1,1,7974,996
5139,2023-01-20 11:08:56.620133,170894573,0,0.0964333,0.1922881,0.1218263,0.435035,0.106526,-10.22884,0,0,30.08823,1,1,7974,996
5164,2023-01-20 11:08:56.659726,170934153,0,0.09130631,0.2069002,0.0695961,0.3494913,0.004109646,-10.12618,0,0,30.08979,1,1,7974,996
5165,2023-01-20 11:08:56.699794,170974207,0,0.1225098,0.2204731,0.006610614,0.3375502,-0.1051017,-10.0424,0,0,30.09166,1,1,7974,996
5194,2023-01-20 11:08:56.739779,171014179,0,0.07832619,0.1809356,-0.01686672,0.3171517,-0.1625425,-10.0414,0,0,30.09291,1,1,7974,996
5195,2023-01-20 11:08:56.779766,171054152,0,0.0996019,0.09167581,-0.02357037,0.3374625,-0.05965155,-10.05882,0,0,30.09419,1,1,7974,996
5204,2023-01-20 11:08:56.820328,171094709,0,0.08029527,-0.04855205,-0.04272205,0.4215666,-0.0394195,-10.09222,0,0,30.09603,1,1,7974,996
5229,2023-01-20 11:08:56.859823,171134207,0,0.1369147,-0.09199015,-0.06710184,0.3992731,0.06505539,-10.0704,0,0,30.09739,1,1,7974,996
5230,2023-01-20 11:08:56.899810,171174197,0,0.1329494,-0.02899247,-0.08301402,0.3250338,0.02739908,-10.04932,0,0,30.09899,1,1,7974,996
5261,2023-01-20 11:08:56.939766,171214156,0,0.01552254,-0.03922644,-0.08718957,0.4093674,-0.09871127,-10.12299,0,0,30.10077,1,1,7974,996
5262,2023-01-20 11:08:56.979779,171254172,0,-0.06271203,-0.1114348,-0.08756281,0.4344391,-0.1714898,-10.13168,0,0,30.10246,1,1,7974,996
5269,2023-01-20 11:08:57.020252,171294645,0,-0.04375321,-0.1733703,-0.06043434,0.2357884,-0.1925844,-10.05386,0,0,30.10481,1,1,7974,996
5294,2023-01-20 11:08:57.059786,171334176,0,0.04564711,-0.04572478,-0.04182237,0.04702821,-0.2030437,-9.844585,0,0,30.10807,1,1,7974,996
5296,2023-01-20 11:08:57.099764,171374151,0,0.173549,0.09902495,-0.01736807,0.02201184,-0.0941595,-9.790133,0,0,30.1116,1,1,7974,996
5325,2023-01-20 11:08:57.139778,171414162,0,0.2134789,0.1033989,0.004517406,0.1615594,-0.1269492,-9.57613,0,0,30.11459,1,1,7974,996
5327,2023-01-20 11:08:57.179834,171454215,0,0.05246318,0.00564257,0.01790285,0.2825265,-0.2696026,-9.473324,0,0,30.1167,1,1,7974,996
5335,2023-01-20 11:08:57.220206,171494585,0,0.04912566,-0.01684892,0.03257399,0.2964343,-0.1509117,-9.458282,0,0,30.11879,1,1,7974,996
5360,2023-01-20 11:08:57.259780,171534158,0,0.09877545,0.06698861,-0.0008291774,0.3306043,-0.1067579,-9.500032,0,0,30.12117,1,1,7974,996
5361,2023-01-20 11:08:57.299768,171574145,0,0.1341895,0.2202799,0.003830345,0.2567855,-0.07705995,-9.659769,0,0,30.12353,1,1,7974,996
5390,2023-01-20 11:08:57.339842,171614218,0,0.1122451,0.2168696,0.007048011,0.395923,-0.1430465,-9.873956,0,0,30.12646,1,1,7973,996
5391,2023-01-20 11:08:57.379793,171654168,0,0.1127049,-0.05256305,0.0155329,0.5823922,-0.1524123,-10.01334,0,0,30.12986,1,1,7973,996
5398,2023-01-20 11:08:57.420209,171694591,0,0.2380001,-0.1617774,0.01795596,0.5113913,-0.04237466,-9.941686,0,0,30.13356,1,1,7973,996
5425,2023-01-20 11:08:57.459754,171734150,0,0.1668312,-0.245047,0.005738938,0.3983874,-0.1117237,-10.21904,0,0,30.13805,1,1,7973,996
5426,2023-01-20 11:08:57.499756,171774167,0,-0.02433947,-0.1408291,0.04149567,0.172343,-0.2904299,-10.45874,0,0,30.1427,1,1,7973,996
5455,2023-01-20 11:08:57.539742,171814167,0,0.02416074,0.03833316,0.08877975,0.1063917,-0.1346518,-10.42795,0,0,30.14731,1,1,7973,996
5456,2023-01-20 11:08:57.579739,171854179,0,0.01951006,0.03430574,0.1197896,0.2557867,-0.1608155,-10.43393,0,0,30.1517,1,1,7973,996
5463,2023-01-20 11:08:57.620145,171894585,0,-0.1184583,0.008218809,0.1183551,0.3754388,-0.3225621,-10.5496,0,0,30.15496,1,1,7973,996
5488,2023-01-20 11:08:57.659762,171934189,0,-0.08922096,-0.1168164,0.1325943,0.406952,-0.1927445,-10.42641,0,0,30.15737,1,1,7973,996
5489,2023-01-20 11:08:57.699738,171974152,0,0.003526646,-0.001790298,0.09211025,0.3530497,-0.2052835,-10.39057,0,0,30.15945,1,1,7973,996
5518,2023-01-20 11:08:57.739763,172014164,0,0.0282773,-0.1226771,0.1061077,0.5188017,-0.2428094,-10.36685,0,0,30.16173,1,1,7973,996
5519,2023-01-20 11:08:57.779782,172054170,0,0.01185051,-0.2388573,0.1531851,0.4865244,-0.3180518,-10.25784,0,0,30.16442,1,1,7973,996
5528,2023-01-20 11:08:57.820340,172094722,0,-0.1631439,-0.1086329,0.1778039,0.3206934,-0.590117,-10.44261,0,0,30.16745,1,1,7973,996
5553,2023-01-20 11:08:57.859763,172134147,0,-0.137475,-0.122285,0.1937264,0.4166806,-0.4852378,-10.42285,0,0,30.17013,1,1,7973,996
5554,2023-01-20 11:08:57.899795,172174181,0,-0.1053196,0.04812365,0.1571114,0.36287,-0.4954305,-10.36587,0,0,30.17219,1,1,7973,996
5585,2023-01-20 11:08:57.939796,172214184,0,0.0806777,0.1754899,0.1329132,0.5263827,-0.3025717,-10.02157,0,0,30.17472,1,1,7973,996
5588,2023-01-20 11:08:57.979843,172254233,0,0.2612824,-0.05364465,0.04068103,0.7409697,-0.3012408,-9.720764,0,0,30.17731,1,1,7973,996
5595,2023-01-20 11:08:58.020174,172294564,0,0.3661101,-0.3024977,-0.009947425,0.8046636,-0.2110169,-9.595727,0,0,30.18005,1,1,7973,996
5620,2023-01-20 11:08:58.059762,172334151,0,0.3265193,-0.4550225,-0.04564917,0.8177238,-0.2743165,-9.708244,0,0,30.18229,1,1,7973,996
5621,2023-01-20 11:08:58.099779,172374167,0,0.3393003,-0.4831277,-0.05938875,0.6775181,-0.2305805,-9.721012,0,0,30.18447,1,1,7973,996
5650,2023-01-20 11:08:58.139833,172414220,0,0.2984218,-0.4506017,-0.07173026,0.663049,-0.2618024,-9.82734,0,0,30.18672,1,1,7973,996
5652,2023-01-20 11:08:58.179786,172454172,0,0.1710914,-0.2947192,-0.08073202,0.6225529,-0.3107616,-9.707957,0,0,30.18906,1,1,7973,996
5660,2023-01-20 11:08:58.220161,172494546,0,0.007105018,-0.2670818,-0.08548563,0.6123782,-0.299157,-9.491386,0,0,30.19187,1,1,7973,996
5685,2023-01-20 11:08:58.259777,172534162,0,-0.2764614,-0.3370948,-0.06053697,0.6826466,-0.4296147,-9.376411,0,0,30.19437,1,1,7973,996
5686,2023-01-20 11:08:58.299790,172574175,0,-0.2765353,-0.3002425,-0.09791671,0.6759635,-0.4571373,-9.106948,0,0,30.19718,1,1,7973,996
5715,2023-01-20 11:08:58.339783,172614169,0,-0.02868389,-0.1758487,-0.1435438,0.6182473,-0.1728995,-8.95365,0,0,30.1998,1,1,7973,996
5716,2023-01-20 11:08:58.379774,172654160,0,-0.140738,-0.1025871,-0.1830631,0.4912608,-0.3220127,-9.009576,0,0,30.20217,1,1,7973,996
5723,2023-01-20 11:08:58.420190,172694583,0,-0.1869659,-0.09569694,-0.20041,0.5591846,-0.3486136,-8.971426,0,0,30.20422,1,1,7973,996
5750,2023-01-20 11:08:58.459766,172734173,0,-0.02613614,0.05532648,-0.2511288,0.605319,-0.2041402,-8.864351,0,0,30.20607,1,1,7973,996
5751,2023-01-20 11:08:58.499756,172774177,0,0.04195642,0.02527555,-0.2636928,0.6208743,-0.2470368,-8.875907,0,0,30.20768,1,1,7973,996
5780,2023-01-20 11:08:58.539720,172814155,0,-0.04511543,-0.08040655,-0.2514685,0.6386982,-0.1702687,-8.952844,0,0,30.20958,1,1,7973,996
5781,2023-01-20 11:08:58.579769,172854218,0,-0.1632832,-0.1593709,-0.2263263,0.657407,-0.3987082,-9.009521,0,0,30.21148,1,1,7973,996
5788,2023-01-20 11:08:58.620098,172894547,0,-0.1367691,-0.009312284,-0.1973872,0.625916,-0.2391496,-8.911433,0,0,30.21369,1,1,7973,996
5813,2023-01-20 11:08:58.659718,172934152,0,-0.1052662,0.1010489,-0.1310338,0.6008862,-0.3055543,-8.843002,0,0,30.21629,1,1,7973,996
5814,2023-01-20 11:08:58.699757,172974177,0,-0.1171476,0.1065282,-0.1056836,0.7682183,-0.2503943,-8.934158,0,0,30.2191,1,1,7973,996
5843,2023-01-20 11:08:58.739756,173014161,0,-0.1487995,0.06458954,-0.05746274,0.7332627,-0.3264228,-9.084014,0,0,30.22231,1,1,7973,996
5844,2023-01-20 11:08:58.779785,173054175,0,-0.1650547,0.06839505,-0.01700075,0.6907638,-0.2456573,-9.645716,0,0,30.22596,1,1,7973,996
5853,2023-01-20 11:08:58.820286,173094672,0,-0.1453864,0.0678267,0.003662446,0.7371128,-0.3355697,-10.09315,0,0,30.22919,1,1,7973,996
5878,2023-01-20 11:08:58.859821,173134214,0,-0.08069066,0.02687396,0.03727583,0.7902803,-0.2126739,-9.999176,0,0,30.23277,1,1,7973,996
5879,2023-01-20 11:08:58.899795,173174194,0,-0.1429817,0.04174564,0.04226756,0.6734152,-0.3240548,-10.04329,0,0,30.23552,1,1,7973,996
5910,2023-01-20 11:08:58.939752,173214157,0,-0.2189131,0.1083261,0.07062456,0.5983495,-0.3769538,-10.05842,0,0,30.23821,1,1,7973,996
5911,2023-01-20 11:08:58.979785,173254197,0,-0.2804081,0.190265,0.0886801,0.664781,-0.2712552,-9.815785,0,0,30.24137,1,1,7973,996
5918,2023-01-20 11:08:59.018341,173294593,0,-0.3458721,0.3293181,0.08359754,0.5583746,-0.2658617,-9.666045,0,0,30.24434,1,1,7973,996
5944,2023-01-20 11:08:59.054310,173334164,0,-0.2975416,0.3834654,0.107648,0.629865,-0.2273111,-9.458514,0,0,30.24688,1,1,7973,996
5946,2023-01-20 11:08:59.090665,173374160,0,-0.3019148,0.3552364,0.127862,0.6540316,-0.1469182,-9.026617,0,0,30.24899,1,1,7973,996
5975,2023-01-20 11:08:59.127065,173414205,0,-0.2159266,0.2862912,0.1167347,0.6282679,0.0009173499,-9.068117,0,0,30.25112,1,1,7973,996
5977,2023-01-20 11:08:59.163399,173454177,0,-0.2555675,0.1515404,0.125817,0.5329804,-0.005567048,-9.212278,0,0,30.25328,1,1,7973,996
5984,2023-01-20 11:08:59.200209,173494653,0,-0.4230498,-0.08310466,0.1378905,0.6394814,-0.07257322,-9.324794,0,0,30.25478,1,1,7973,996
6010,2023-01-20 11:08:59.239708,173534151,0,-0.4537624,-0.1710477,0.1360739,0.6470692,-0.01224811,-9.420169,0,0,30.25549,1,1,7973,996
6011,2023-01-20 11:08:59.279775,173574217,0,-0.3180379,-0.08819705,0.1030876,0.6052612,0.03691811,-9.535766,0,0,30.257,1,1,7973,996
6040,2023-01-20 11:08:59.319725,173614165,0,-0.1854265,-0.164127,0.02625461,0.7069618,-0.05037493,-9.477275,0,0,30.25893,1,1,7973,996
6041,2023-01-20 11:08:59.359729,173654168,0,-0.04202628,-0.3442938,-0.03451663,0.6455866,0.01738032,-9.385063,0,0,30.26122,1,1,7973,996
6047,2023-01-20 11:08:59.400231,173694646,0,-0.1391942,-0.5515242,-0.03367142,0.573384,0.06466886,-9.542681,0,0,30.26233,1,1,7973,996
6075,2023-01-20 11:08:59.444156,173734176,0,-0.08954578,-0.557084,-0.06189374,0.631661,0.07591601,-9.667365,0,0,30.26365,1,1,7973,996
6076,2023-01-20 11:08:59.488602,173774175,0,-0.03614946,-0.4052258,-0.09339196,0.5226816,0.0845067,-9.748534,0,0,30.26541,1,1,7973,996
6105,2023-01-20 11:08:59.533043,173814170,0,-0.1264937,-0.3515425,-0.1319565,0.5237582,0.03021145,-9.774387,0,0,30.26706,1,1,7973,996
6106,2023-01-20 11:08:59.577556,173854230,0,-0.2622955,-0.3347212,-0.1328589,0.5235163,0.01971378,-9.739492,0,0,30.268,1,1,7973,996
6112,2023-01-20 11:08:59.618383,173894651,0,-0.3046331,-0.224561,-0.1548527,0.539131,-0.03040885,-9.73732,0,0,30.26897,1,1,7973,996
6138,2023-01-20 11:08:59.654304,173934166,0,-0.1937607,-0.02649366,-0.1844485,0.4393122,0.03746075,-9.696256,0,0,30.26991,1,1,7973,996
6139,2023-01-20 11:08:59.690650,173974149,0,-0.2618607,0.1117885,-0.1785163,0.1903761,-0.04557474,-9.827501,0,0,30.27141,1,1,7973,996
6168,2023-01-20 11:08:59.727025,174014163,0,-0.3760095,-0.04252307,-0.1485093,0.4495543,-0.07237014,-9.873349,0,0,30.27374,1,1,7973,996
6169,2023-01-20 11:08:59.763400,174054178,0,-0.3324852,-0.1384661,-0.1278087,0.5746754,0.04990895,-9.873017,0,0,30.27659,1,1,7973,996
6177,2023-01-20 11:08:59.800357,174094797,0,-0.2119108,0.04571673,-0.1187957,0.4223682,0.1090094,-9.833101,0,0,30.27922,1,1,7973,996
6204,2023-01-20 11:08:59.839748,174134200,0,-0.03720318,0.2764011,-0.122812,0.3389443,0.2097623,-9.863691,0,0,30.2817,1,1,7973,996
6205,2023-01-20 11:08:59.879709,174174173,0,0.06072909,0.3062732,-0.1061186,0.4555843,0.215975,-9.812731,0,0,30.28437,1,1,7973,996
6236,2023-01-20 11:08:59.919698,174214174,0,0.02707783,0.3145474,-0.08551844,0.4502931,0.01400544,-9.765938,0,0,30.28623,1,1,7973,996
6237,2023-01-20 11:08:59.959694,174254182,0,0.06569418,0.3348158,-0.06851977,0.399512,0.1303443,-9.653152,0,0,30.28709,1,1,7973,996
6243,2023-01-20 11:09:00.000235,174294735,0,0.1439812,0.3293157,-0.05544643,0.4148814,0.2106986,-9.692936,0,0,30.28785,1,1,7973,996
6269,2023-01-20 11:09:00.039645,174334174,0,0.07870355,0.2997552,-0.02862385,0.4652035,0.06912984,-9.732066,0,0,30.28872,1,1,7973,996
6270,2023-01-20 11:09:00.079618,174374177,0,0.05910071,0.3462813,-0.006322762,0.4678036,-0.02910413,-9.719632,0,0,30.28953,1,1,7973,996
6298,2023-01-20 11:09:00.119571,174414159,0,0.004164228,0.3209919,-0.0195281,0.4342784,-0.007658856,-9.803582,0,0,30.29054,1,1,7973,996
6301,2023-01-20 11:09:00.159555,174454172,0,0.03086763,0.2695122,-0.01381351,0.3598834,0.1685563,-9.812566,0,0,30.29201,1,1,7973,996
6308,2023-01-20 11:09:00.200586,174495233,0,0.06114716,0.228511,-0.01509187,0.2974792,0.1947516,-9.838063,0,0,30.29394,1,1,7973,996
6334,2023-01-20 11:09:00.239520,174534147,0,0.09047341,0.2487194,-0.01220077,0.3152384,0.1824887,-9.752133,0,0,30.29538,1,1,7973,996
6335,2023-01-20 11:09:00.279603,174574209,0,0.1410626,0.2217121,-0.004675477,0.4955494,0.2218175,-9.567914,0,0,30.29632,1,1,7973,996
6363,2023-01-20 11:09:00.319591,174614176,0,0.1048409,0.2060563,-0.01054052,0.4433361,0.1232228,-9.528588,0,0,30.29725,1,1,7973,996
6365,2023-01-20 11:09:00.359605,174654170,0,-0.03554146,0.1647454,-0.0262106,0.2341285,0.1115978,-9.536724,0,0,30.29873,1,1,7973,996
6371,2023-01-20 11:09:00.400205,174694749,0,-0.05255949,0.06781214,-0.04965664,0.3169273,0.1663521,-9.535504,0,0,30.30089,1,1,7973,996
6399,2023-01-20 11:09:00.439615,174734180,0,0.07467829,0.1233644,-0.04442961,0.3302114,0.2778179,-9.700071,0,0,30.30337,1,1,7973,996
6400,2023-01-20 11:09:00.479614,174774201,0,0.04819396,0.2313427,-0.07105439,0.2671376,0.1505051,-9.89067,0,0,30.30545,1,1,7973,996
6430,2023-01-20 11:09:00.519557,174814166,0,-0.1198864,0.3146726,-0.07061463,0.1356758,0.02360839,-10.03953,0,0,30.30776,1,1,7973,996
6432,2023-01-20 11:09:00.559550,174854181,0,-0.1944184,0.2676696,-0.07710653,0.2649386,0.03342244,-10.06298,0,0,30.30994,1,1,7973,996
6438,2023-01-20 11:09:00.600224,174894877,0,-0.1218817,0.2001347,-0.09355321,0.4549664,0.1970285,-10.07369,0,0,30.3121,1,1,7973,996
6464,2023-01-20 11:09:00.639526,174934166,0,0.04466536,0.2123412,-0.08857255,0.4213093,0.2709235,-10.2869,0,0,30.31431,1,1,7973,996
6465,2023-01-20 11:09:00.679534,174974161,0,0.06153119,0.2586808,-0.07958537,0.3183281,0.2541026,-10.39436,0,0,30.31672,1,1,7973,996
6494,2023-01-20 11:09:00.719558,175014172,0,0.04941147,0.2653843,-0.06608024,0.3331503,0.2939782,-10.36198,0,0,30.31888,1,1,7973,996
6496,2023-01-20 11:09:00.759595,175054196,0,0.04044956,0.1124299,-0.05536569,0.5301292,0.3095342,-10.36468,0,0,30.32074,1,1,7973,996
6504,2023-01-20 11:09:00.800402,175094990,0,0.01870073,-0.02999036,-0.09895886,0.6450927,0.2043702,-10.38116,0,0,30.32264,1,1,7973,996
6530,2023-01-20 11:09:00.839561,175134159,0,0.1444478,0.02433816,-0.1158188,0.590966,0.2660244,-10.31206,0,0,30.32432,1,1,7973,996
6531,2023-01-20 11:09:00.879566,175174173,0,0.1983798,0.07604669,-0.1143856,0.4767055,0.3334988,-10.23542,0,0,30.32561,1,1,7973,996
6561,2023-01-20 11:09:00.919544,175214161,0,0.2953257,0.01870708,-0.04732295,0.4895818,0.5499842,-10.06502,0,0,30.32704,1,1,7973,996
6563,2023-01-20 11:09:00.959554,175254180,0,0.5894365,0.09469467,-0.03064656,0.5558285,0.5785269,-9.919256,0,0,30.32883,1,1,7973,996
6569,2023-01-20 11:09:01.000214,175294850,0,0.6328392,0.2789022,-0.0585428,0.4892966,0.2436525,-10.06503,0,0,30.33104,1,1,7973,996
6595,2023-01-20 11:09:01.039551,175334157,0,0.4612854,0.2258569,-0.05904804,0.554599,0.2078832,-9.989854,0,0,30.33292,1,1,7973,996
6596,2023-01-20 11:09:01.079607,175374183,0,0.4038594,0.1440645,-0.03823183,0.6611121,0.2806526,-9.75986,0,0,30.33439,1,1,7973,996
6624,2023-01-20 11:09:01.119610,175414156,0,0.3476358,0.169335,-0.01549973,0.5628198,0.288488,-9.814318,0,0,30.33625,1,1,7973,996
6627,2023-01-20 11:09:01.159664,175454179,0,0.3467423,0.2034513,-0.03457485,0.6442305,0.369661,-9.600863,0,0,30.33893,1,1,7973,996
6634,2023-01-20 11:09:01.200478,175494963,0,0.3743675,0.1907056,-0.07156323,0.5942245,0.4572558,-9.549292,0,0,30.34192,1,1,7973,996
6659,2023-01-20 11:09:01.239660,175534172,0,0.2646658,0.1165758,-0.08085683,0.7228642,0.3964466,-9.506601,0,0,30.34445,1,1,7973,996
6661,2023-01-20 11:09:01.279677,175574216,0,0.2105725,0.1110086,-0.1095324,0.7091542,0.4431343,-9.66031,0,0,30.34634,1,1,7973,996
6689,2023-01-20 11:09:01.319599,175614165,0,0.1740284,0.05151907,-0.1274167,0.8459197,0.3609628,-9.690644,0,0,30.34822,1,1,7973,996
6691,2023-01-20 11:09:01.359571,175654164,0,0.1624503,0.004401621,-0.1497795,0.7570106,0.3701473,-9.769273,0,0,30.35011,1,1,7973,996
6697,2023-01-20 11:09:01.400252,175694873,0,0.1941253,0.01592322,-0.1587226,0.6433492,0.4483725,-9.605587,0,0,30.3521,1,1,7973,996
6724,2023-01-20 11:09:01.439574,175734206,0,0.2031801,0.09524127,-0.1693076,0.4890559,0.4868738,-9.481745,0,0,30.35444,1,1,7973,996
6726,2023-01-20 11:09:01.479548,175774190,0,0.0662466,0.1020883,-0.1454944,0.6017076,0.402061,-9.314174,0,0,30.35707,1,1,7973,996
6754,2023-01-20 11:09:01.519515,175814168,0,0.08248479,0.1534854,-0.1538424,0.5386444,0.4379786,-9.341555,0,0,30.35931,1,1,7973,996
6756,2023-01-20 11:09:01.559516,175854180,0,0.0996091,0.1457189,-0.1621493,0.5768875,0.4424929,-9.42406,0,0,30.36144,1,1,7973,996
6762,2023-01-20 11:09:01.600279,175894954,0,0.1660974,0.1791852,-0.1656424,0.6237537,0.399359,-9.646038,0,0,30.36291,1,1,7973,996
6787,2023-01-20 11:09:01.639532,175934205,0,0.218529,0.04501658,-0.1760025,0.7279726,0.3782046,-9.833468,0,0,30.36416,1,1,7973,996
6789,2023-01-20 11:09:01.679487,175974158,0,0.06558179,-0.1622963,-0.1554898,0.7926707,0.2379822,-9.730933,0,0,30.36504,1,1,7973,996
6818,2023-01-20 11:09:01.719484,176014152,0,0.01724051,-0.06210924,-0.1267338,0.6679376,0.1725896,-9.683001,0,0,30.36597,1,1,7973,996
6820,2023-01-20 11:09:01.759507,176054173,0,-0.0491666,-0.006720054,-0.1346705,0.5642405,0.2217655,-9.818994,0,0,30.36714,1,1,7973,996
6828,2023-01-20 11:09:01.800415,176095079,0,-0.1447575,-0.1066839,-0.1179919,0.6230583,0.3279497,-9.880063,0,0,30.36816,1,1,7973,996
6853,2023-01-20 11:09:01.839504,176134166,0,-0.1603904,-0.08810488,-0.1303753,0.6623949,0.2650225,-9.844143,0,0,30.36963,1,1,7973,996
6855,2023-01-20 11:09:01.879530,176174191,0,-0.1649166,0.03768444,-0.1537994,0.5199784,0.30687,-10.04438,0,0,30.37036,1,1,7973,996
6885,2023-01-20 11:09:01.919514,176214173,0,-0.3221671,0.1610207,-0.1556306,0.4010157,0.228833,-10.24132,0,0,30.36978,1,1,7973,996
6887,2023-01-20 11:09:01.959565,176254223,0,-0.4680282,0.03841416,-0.1279212,0.6758752,0.1533967,-10.09948,0,0,30.36884,1,1,7973,996
6893,2023-01-20 11:09:02.000289,176294945,0,-0.3942893,-0.02316612,-0.105693,0.8300654,0.2134478,-9.923837,0,0,30.36789,1,1,7973,996
6918,2023-01-20 11:09:02.039498,176334149,0,-0.2037789,-0.06530931,-0.08735712,0.7214984,0.3613633,-9.770194,0,0,30.36672,1,1,7973,996
6920,2023-01-20 11:09:02.079519,176374165,0,-0.0668284,-0.05748522,-0.04133894,0.6035398,0.4931491,-9.69252,0,0,30.36596,1,1,7973,996
6948,2023-01-20 11:09:02.119568,176414210,0,-0.03700903,-0.1401935,0.007167435,0.6825395,0.4051742,-9.594295,0,0,30.36555,1,1,7973,996
6951,2023-01-20 11:09:02.159541,176454178,0,-0.1438034,-0.1143156,-0.007227818,0.8003648,0.184003,-9.675714,0,0,30.36555,1,1,7973,996
6958,2023-01-20 11:09:02.200488,176495120,0,-0.1144991,0.008442009,-0.03653636,0.6126717,0.2493905,-9.671305,0,0,30.3655,1,1,7973,996
6983,2023-01-20 11:09:02.239509,176534140,0,-0.06164944,0.0369341,-0.05929362,0.5467302,0.427086,-9.758366,0,0,30.36583,1,1,7973,996
6985,2023-01-20 11:09:02.279586,176574215,0,-0.02102089,-0.02757083,-0.07263653,0.5794122,0.3783319,-9.813853,0,0,30.36702,1,1,7973,996
7013,2023-01-20 11:09:02.319549,176614177,0,0.0002068264,-0.08884043,-0.07146864,0.5940931,0.3158025,-9.68413,0,0,30.36855,1,1,7973,996
7015,2023-01-20 11:09:02.359539,176654165,0,0.09595261,-0.05970971,-0.07873037,0.6370642,0.2842811,-9.76422,0,0,30.37068,1,1,7973,996
7021,2023-01-20 11:09:02.400209,176694834,0,0.2028464,-0.009038796,-0.09824438,0.5466242,0.4097999,-9.958785,0,0,30.37278,1,1,7973,996
7048,2023-01-20 11:09:02.439564,176734208,0,0.1698457,-0.01833396,-0.0989442,0.4750486,0.4196365,-10.25025,0,0,30.37527,1,1,7973,996
7050,2023-01-20 11:09:02.479529,176774193,0,0.1291414,-0.009919843,-0.07880571,0.4187034,0.4874241,-10.27556,0,0,30.37752,1,1,7973,996
7078,2023-01-20 11:09:02.519495,176814179,0,0.08782915,0.002519387,-0.06033287,0.3927557,0.4836846,-10.18792,0,0,30.3795,1,1,7973,996
7080,2023-01-20 11:09:02.559484,176854187,0,0.06693013,-0.06614748,-0.059063,0.5066265,0.4228589,-10.0544,0,0,30.38156,1,1,7973,996
7086,2023-01-20 11:09:02.600264,176894987,0,0.03657661,-0.1518244,-0.07333726,0.5171663,0.3799367,-10.08175,0,0,30.38373,1,1,7973,996
7111,2023-01-20 11:09:02.639473,176934178,0,-0.04831482,-0.2398662,-0.07911156,0.5687042,0.2351894,-10.13967,0,0,30.3857,1,1,7973,996
7113,2023-01-20 11:09:02.679477,176974164,0,-0.1573831,-0.2595722,-0.08111362,0.5970201,0.1789711,-10.04155,0,0,30.3878,1,1,7973,996
7141,2023-01-20 11:09:02.719491,177014160,0,-0.07649325,-0.2788428,-0.09935827,0.6161813,0.4046924,-9.752689,0,0,30.3895,1,1,7973,996
7143,2023-01-20 11:09:02.759551,177054202,0,0.047591,-0.3687386,-0.1077882,0.6923156,0.3606836,-9.720556,0,0,30.39098,1,1,7973,996
7151,2023-01-20 11:09:02.800402,177095035,0,0.01813376,-0.3820652,-0.1140158,0.6140565,0.2266531,-10.15329,0,0,30.3919,1,1,7973,996
7176,2023-01-20 11:09:02.839516,177134151,0,0.07089212,-0.2939934,-0.1097252,0.4972323,0.3823019,-10.03467,0,0,30.39294,1,1,7973,996
7178,2023-01-20 11:09:02.879552,177174189,0,0.1445627,-0.3041158,-0.1040789,0.6145907,0.4316378,-9.933261,0,0,30.39447,1,1,7973,996
7208,2023-01-20 11:09:02.919577,177214215,0,0.06576698,-0.3400773,-0.07512284,0.6726907,0.2620037,-10.15806,0,0,30.39608,1,1,7973,996
7210,2023-01-20 11:09:02.959537,177254177,0,0.0004985128,-0.4174928,-0.04275699,0.6881666,0.3038882,-10.30908,0,0,30.39748,1,1,7973,996
7216,2023-01-20 11:09:03.000234,177294876,0,-0.02156057,-0.5280058,0.01360417,0.7597436,0.3828999,-10.26594,0,0,30.39852,1,1,7973,996
7241,2023-01-20 11:09:03.039532,177334179,0,-0.0424665,-0.4352159,0.04926816,0.524752,0.406478,-10.25068,0,0,30.39935,1,1,7973,996
7243,2023-01-20 11:09:03.079570,177374221,0,0.08012491,-0.2437036,0.04158467,0.4632025,0.6162027,-10.11958,0,0,30.40074,1,1,7973,996
7271,2023-01-20 11:09:03.119504,177414160,0,0.1598965,-0.2024733,0.03151309,0.5519698,0.6570095,-9.85294,0,0,30.40181,1,1,7973,996
7274,2023-01-20 11:09:03.159516,177454176,0,0.1269132,-0.142394,0.04012974,0.4404587,0.6170523,-9.589028,0,0,30.40252,1,1,7973,996
7281,2023-01-20 11:09:03.200483,177495148,0,0.00466671,-0.2017742,0.06667632,0.6046525,0.5035215,-9.395092,0,0,30.40347,1,1,7973,996
7306,2023-01-20 11:09:03.239551,177534218,0,-0.04514595,-0.09466635,0.04023383,0.5895866,0.377883,-9.426872,0,0,30.40483,1,1,7973,996
7308,2023-01-20 11:09:03.279506,177574175,0,-0.1053463,-0.1025627,0.01904731,0.5452075,0.4620621,-9.774568,0,0,30.40597,1,1,7973,996
7336,2023-01-20 11:09:03.319490,177614160,0,-0.06745329,-0.1120833,0.05604722,0.4883821,0.650739,-9.928897,0,0,30.40678,1,1,7973,996
7338,2023-01-20 11:09:03.359504,177654176,0,-0.02525947,0.04728623,0.06982578,0.4503189,0.420829,-10.13067,0,0,30.40794,1,1,7973,996
7344,2023-01-20 11:09:03.400279,177694953,0,-0.1242189,0.09118828,0.1103005,0.4730634,0.4266528,-10.21034,0,0,30.40842,1,1,7973,996
7371,2023-01-20 11:09:03.439481,177734155,0,-0.2266984,0.08555168,0.1216747,0.5807729,0.4431967,-10.04946,0,0,30.40826,1,1,7973,996
7373,2023-01-20 11:09:03.479515,177774188,0,-0.1448806,0.1763495,0.110503,0.5088489,0.4735111,-10.04999,0,0,30.40818,1,1,7973,996
7401,2023-01-20 11:09:03.519489,177814162,0,-0.07361972,0.1051936,0.09626525,0.6244725,0.6075296,-9.804368,0,0,30.40758,1,1,7973,996
7403,2023-01-20 11:09:03.559575,177854247,0,-0.1133193,0.1284417,0.07793525,0.6844618,0.4136572,-9.551405,0,0,30.40705,1,1,7973,996
7409,2023-01-20 11:09:03.600291,177894963,0,-0.08139638,0.157849,0.03364514,0.544393,0.4436788,-9.454528,0,0,30.40619,1,1,7973,996
7434,2023-01-20 11:09:03.639500,177934167,0,-0.09076539,0.1174745,0.01558903,0.6006023,0.331394,-9.473646,0,0,30.40551,1,1,7973,996
7436,2023-01-20 11:09:03.679500,177974162,0,-0.2050182,0.09393363,0.04054596,0.6782157,0.2948325,-9.465866,0,0,30.40506,1,1,7973,996
7465,2023-01-20 11:09:03.719559,178014216,0,-0.2234379,0.112392,0.07198743,0.7449703,0.129431,-9.527694,0,0,30.40444,1,1,7973,996
7467,2023-01-20 11:09:03.759518,178054170,0,-0.2861725,0.09048545,0.0692436,0.6328592,0.1099335,-9.472667,0,0,30.4044,1,1,7973,996
7475,2023-01-20 11:09:03.800394,178095041,0,-0.3151903,0.1029753,0.07681268,0.6738148,0.06575986,-9.300717,0,0,30.40489,1,1,7973,996
7500,2023-01-20 11:09:03.839499,178134151,0,-0.1415014,0.1593657,0.04617106,0.5430937,0.2339571,-9.233045,0,0,30.40573,1,1,7973,996
7502,2023-01-20 11:09:03.879572,178174229,0,0.04629038,0.07603551,0.03631194,0.5419697,0.4362963,-9.29508,0,0,30.40714,1,1,7973,996
7532,2023-01-20 11:09:03.919503,178214165,0,-0.05228207,-0.1124236,0.0433757,0.8181005,0.07219311,-9.495222,0,0,30.40852,1,1,7973,996
7534,2023-01-20 11:09:03.959518,178254185,0,-0.04938825,-0.1232722,0.02928553,0.6224203,0.001778105,-9.653103,0,0,30.40959,1,1,7973,996
7540,2023-01-20 11:09:04.000266,178294938,0,-0.0463136,-0.2114547,0.03174103,0.5985152,0.2333251,-9.635538,0,0,30.41026,1,1,7973,996
7565,2023-01-20 11:09:04.039507,178334182,0,-0.00742985,-0.2210133,0.01336114,0.6096765,0.2344794,-9.730847,0,0,30.41139,1,1,7973,996
7567,2023-01-20 11:09:04.079506,178374185,0,0.1148433,0.08000249,-0.02987181,0.4859088,0.1937185,-9.912751,0,0,30.41197,1,1,7973,996
7596,2023-01-20 11:09:04.119491,178414173,0,0.2880654,0.09535196,-0.06176031,0.5544732,0.2752874,-9.825779,0,0,30.41169,1,1,7973,996
7598,2023-01-20 11:09:04.159486,178454171,0,0.2486573,-0.08084094,-0.09115651,0.6747494,0.1590251,-9.742046,0,0,30.41163,1,1,7973,996
7606,2023-01-20 11:09:04.200470,178495159,0,0.1890901,-0.01176916,-0.1256309,0.5807199,0.0861042,-9.748827,0,0,30.41159,1,1,7973,996
7631,2023-01-20 11:09:04.239470,178534150,0,0.1140047,0.08067893,-0.1394701,0.4579692,0.1227467,-9.86667,0,0,30.41168,1,1,7973,996
7633,2023-01-20 11:09:04.279500,178574170,0,0.01182137,0.1007374,-0.14734,0.5501583,0.06435838,-9.781898,0,0,30.41253,1,1,7973,996
7661,2023-01-20 11:09:04.319511,178614172,0,0.008149491,0.1773928,-0.1620462,0.4593082,0.05007682,-9.794615,0,0,30.41349,1,1,7973,996
7663,2023-01-20 11:09:04.359554,178654205,0,-0.105164,0.1403407,-0.1604397,0.4278749,0.02552163,-9.717448,0,0,30.41453,1,1,7973,996
7669,2023-01-20 11:09:04.400205,178694847,0,-0.1236665,0.04201034,-0.1698425,0.4778327,0.1072838,-9.6766,0,0,30.41565,1,1,7973,996
7696,2023-01-20 11:09:04.439510,178734158,0,0.008969653,0.07584639,-0.1788563,0.4294982,0.166988,-9.680045,0,0,30.41707,1,1,7973,996
7698,2023-01-20 11:09:04.479530,178774185,0,-0.009361455,0.09129583,-0.1924663,0.3507665,0.1793315,-9.686245,0,0,30.41806,1,1,7973,996
7726,2023-01-20 11:09:04.519558,178814219,0,-0.05496598,0.05052628,-0.2022201,0.3693009,0.2116511,-9.822605,0,0,30.41916,1,1,7973,996
7728,2023-01-20 11:09:04.559512,178854180,0,-0.09473259,-0.04165146,-0.2018756,0.5637069,0.1473773,-9.778674,0,0,30.42099,1,1,7973,996
7734,2023-01-20 11:09:04.600263,178894937,0,-0.06699678,-0.0773668,-0.1817732,0.5663742,0.120714,-9.845698,0,0,30.42311,1,1,7973,996
7759,2023-01-20 11:09:04.639491,178934155,0,-0.0526358,-0.02352168,-0.1770519,0.5415248,0.1049107,-9.83146,0,0,30.42553,1,1,7973,996
7761,2023-01-20 11:09:04.679561,178974216,0,-0.04896523,0.03224149,-0.1759177,0.4978625,0.1165748,-9.988143,0,0,30.42868,1,1,7973,996
7789,2023-01-20 11:09:04.719524,179014169,0,0.06291258,0.0599593,-0.1593844,0.4797589,0.2719294,-9.916284,0,0,30.43185,1,1,7973,996
7790,2023-01-20 11:09:04.759528,179054163,0,0.1090864,0.1354929,-0.1355398,0.4101374,0.1960089,-9.939502,0,0,30.43476,1,1,7973,996
7799,2023-01-20 11:09:04.800398,179095023,0,-0.01915068,0.2976706,-0.1058521,0.3213688,0.04391628,-10.01779,0,0,30.43767,1,1,7973,996
7824,2023-01-20 11:09:04.839571,179134211,0,-0.1728394,0.3289239,-0.04787254,0.3969318,0.07445389,-9.874314,0,0,30.44,1,1,7973,996
7826,2023-01-20 11:09:04.879529,179174183,0,-0.3194821,0.3042065,-0.0004088484,0.5051311,0.08011752,-9.748329,0,0,30.4424,1,1,7973,996
7856,2023-01-20 11:09:04.919511,179214180,0,-0.2980239,0.2949527,0.01768927,0.6644388,0.1579585,-9.451945,0,0,30.44479,1,1,7973,996
7857,2023-01-20 11:09:04.959494,179254177,0,-0.2540054,0.3361504,0.01937288,0.702927,0.15867,-9.365211,0,0,30.44748,1,1,7973,996
7864,2023-01-20 11:09:05.000265,179294963,0,-0.1783276,0.356363,0.01536531,0.6176037,0.09550959,-9.327058,0,0,30.45071,1,1,7973,996
7889,2023-01-20 11:09:05.039481,179334170,0,-0.05080764,0.291054,0.01004011,0.4821896,0.1528522,-9.179131,0,0,30.45354,1,1,7973,996
7891,2023-01-20 11:09:05.079501,179374181,0,0.04635797,-0.05265276,0.03415965,0.6665874,0.2867512,-9.028507,0,0,30.45676,1,1,7973,996
7919,2023-01-20 11:09:05.119505,179414176,0,0.1666787,-0.5149665,0.05542145,0.959537,0.3972875,-8.883401,0,0,30.46089,1,1,7973,996
7920,2023-01-20 11:09:05.159539,179454200,0,0.1990103,-0.6584908,0.04328165,0.8679043,0.2396135,-8.848072,0,0,30.46571,1,1,7973,996
7929,2023-01-20 11:09:05.200488,179495140,0,0.169489,-0.4880207,0.002415214,0.5467805,0.06375765,-9.018961,0,0,30.4706,1,1,7973,996
7954,2023-01-20 11:09:05.239510,179534156,0,0.1016067,-0.4558633,0.02034252,0.4087837,0.07533208,-9.208815,0,0,30.47463,1,1,7973,996
7956,2023-01-20 11:09:05.279522,179574163,0,0.01313172,-0.4875073,0.05960716,0.5098186,0.1421899,-9.151259,0,0,30.47798,1,1,7973,996
7984,2023-01-20 11:09:05.319535,179614170,0,0.04534226,-0.3442604,0.08485298,0.4553007,0.1643948,-9.201737,0,0,30.48125,1,1,7973,996
7986,2023-01-20 11:09:05.359566,179654196,0,-0.007935264,-0.2233211,0.09737831,0.3982519,0.1532985,-9.208403,0,0,30.48501,1,1,7973,996
7993,2023-01-20 11:09:05.400204,179694828,0,-0.06722207,-0.1909071,0.1199505,0.448791,0.1193496,-9.190114,0,0,30.48844,1,1,7973,996
8020,2023-01-20 11:09:05.439564,179734210,0,-0.01619411,-0.1557757,0.1376396,0.5539008,0.0994319,-9.168019,0,0,30.49168,1,1,7973,996
8022,2023-01-20 11:09:05.479521,179774189,0,-0.009268028,-0.006158149,0.1135508,0.4023652,0.1435819,-9.123478,0,0,30.49407,1,1,7973,996
8052,2023-01-20 11:09:05.519467,179814158,0,-0.02596119,0.1516956,0.0737675,0.3027768,-0.003924229,-9.067348,0,0,30.49574,1,1,7973,996
8053,2023-01-20 11:09:05.559471,179854184,0,0.03797907,0.1339339,0.05170942,0.4466358,0.1277191,-8.938278,0,0,30.49751,1,1,7973,996
8060,2023-01-20 11:09:05.600284,179895020,0,0.07972744,0.1748255,0.00696074,0.6422541,0.1582982,-8.744496,0,0,30.49972,1,1,7973,996
8085,2023-01-20 11:09:05.639456,179934168,0,0.1291183,0.212551,-0.0734692,0.4514305,0.2470167,-8.627821,0,0,30.50256,1,1,7973,996
8087,2023-01-20 11:09:05.679482,179974170,0,0.05371666,0.1383926,-0.1421526,0.5194916,0.1051346,-8.526846,0,0,30.50659,1,1,7973,996
8115,2023-01-20 11:09:05.719530,180014194,0,-0.01728741,0.04025197,-0.2405766,0.6704112,0.06736232,-8.377956,0,0,30.51099,1,1,7973,996
8116,2023-01-20 11:09:05.759528,180054168,0,0.006412685,-0.03505308,-0.3477976,0.6466451,0.2403179,-8.28446,0,0,30.51434,1,1,7973,996
8125,2023-01-20 11:09:05.800422,180095037,0,-0.04625071,0.00725551,-0.458658,0.6160309,0.1085258,-8.192944,0,0,30.51802,1,1,7973,996
8150,2023-01-20 11:09:05.839528,180134159,0,-0.05395237,0.02110581,-0.5598204,0.5961964,0.1319816,-8.32504,0,0,30.52159,1,1,7973,996
8152,2023-01-20 11:09:05.879541,180174188,0,0.01499298,0.01955817,-0.6731748,0.4833221,0.2422666,-8.419043,0,0,30.52463,1,1,7973,996
8182,2023-01-20 11:09:05.919508,180214171,0,0.006521641,0.03526013,-0.7204756,0.5081879,0.2035393,-8.610824,0,0,30.52722,1,1,7973,996
8183,2023-01-20 11:09:05.959499,180254178,0,-0.02311687,0.06536046,-0.7534264,0.3803403,0.2790267,-8.696527,0,0,30.53082,1,1,7973,996
8190,2023-01-20 11:09:06.000282,180294977,0,-0.08537418,0.1664132,-0.7568577,0.3461185,0.2738951,-8.914433,0,0,30.53367,1,1,7973,996
8215,2023-01-20 11:09:06.039476,180334167,0,-0.06727915,0.1729535,-0.7844301,0.3686351,0.3088128,-8.955556,0,0,30.53607,1,1,7973,996
8217,2023-01-20 11:09:06.079467,180374155,0,-0.09664509,0.1467821,-0.7836475,0.4150696,0.2765714,-9.03144,0,0,30.53827,1,1,7973,996
8245,2023-01-20 11:09:06.119495,180414179,0,-0.0642905,0.1535605,-0.795468,0.3184497,0.3530489,-9.078817,0,0,30.54089,1,1,7973,996
8246,2023-01-20 11:09:06.159487,180454168,0,-0.02167327,0.120343,-0.7652541,0.4278745,0.3809564,-9.080524,0,0,30.54365,1,1,7973,996
8255,2023-01-20 11:09:06.200437,180495114,0,-0.03011519,0.169044,-0.7620686,0.3005469,0.2948514,-9.138225,0,0,30.5469,1,1,7973,996
8280,2023-01-20 11:09:06.239476,180534154,0,-0.05987785,0.2775577,-0.7581039,0.1881299,0.1955626,-9.236458,0,0,30.55005,1,1,7973,996
8282,2023-01-20 11:09:06.279494,180574173,0,-0.1898657,0.3216383,-0.7206061,0.2821338,0.2595384,-9.246335,0,0,30.55316,1,1,7973,996
8310,2023-01-20 11:09:06.319484,180614164,0,-0.258948,0.2721708,-0.6829482,0.4529989,0.2628615,-9.234035,0,0,30.55582,1,1,7973,996
8311,2023-01-20 11:09:06.359492,180654173,0,-0.2877463,0.1542638,-0.6653713,0.4778896,0.3181577,-9.237736,0,0,30.55732,1,1,7973,996
8318,2023-01-20 11:09:06.400271,180694953,0,-0.2424255,0.06863553,-0.6405982,0.4785601,0.3676892,-9.305465,0,0,30.5586,1,1,7973,996
8345,2023-01-20 11:09:06.439470,180734149,0,-0.1862259,0.02106463,-0.6072738,0.5082427,0.5014672,-9.325459,0,0,30.55963,1,1,7973,996
8347,2023-01-20 11:09:06.479499,180774175,0,-0.1373948,0.04324743,-0.5837425,0.5651386,0.4044926,-9.35706,0,0,30.56101,1,1,7973,996
8375,2023-01-20 11:09:06.519506,180814179,0,-0.1789151,0.07343148,-0.5836099,0.5115697,0.2446821,-9.475202,0,0,30.56319,1,1,7973,996
8376,2023-01-20 11:09:06.559515,180854184,0,-0.2556072,-0.03944737,-0.5964991,0.6093789,0.3234376,-9.499514,0,0,30.56508,1,1,7973,996
8383,2023-01-20 11:09:06.600264,180894930,0,-0.1112734,-0.08551774,-0.5904766,0.6065169,0.4812436,-9.56721,0,0,30.5669,1,1,7973,996
8408,2023-01-20 11:09:06.639510,180934178,0,-0.06126769,-0.09456559,-0.5830959,0.4599468,0.4854236,-9.643934,0,0,30.56915,1,1,7973,996
8410,2023-01-20 11:09:06.679503,180974172,0,-0.1179756,-0.1010291,-0.5715815,0.5409346,0.304996,-9.67069,0,0,30.57174,1,1,7973,996
8438,2023-01-20 11:09:06.719507,181014178,0,-0.08743941,-0.02991822,-0.5825919,0.4047715,0.2833514,-9.828881,0,0,30.57463,1,1,7973,996
8439,2023-01-20 11:09:06.759475,181054147,0,-0.1165329,-0.02771484,-0.5882656,0.4221036,0.3283659,-9.956153,0,0,30.57721,1,1,7973,996
8448,2023-01-20 11:09:06.800403,181095077,0,-0.08009525,0.1175747,-0.582168,0.2426434,0.3569057,-9.917848,0,0,30.57979,1,1,7973,996
8473,2023-01-20 11:09:06.839497,181134166,0,-0.05032966,0.1735994,-0.5687112,0.2575668,0.5617191,-9.742168,0,0,30.5821,1,1,7973,996
8475,2023-01-20 11:09:06.879523,181174187,0,-0.04434103,0.3053839,-0.5501224,0.3212689,0.5122269,-9.59057,0,0,30.5842,1,1,7973,996
8505,2023-01-20 11:09:06.919500,181214159,0,-0.01105189,0.4014309,-0.556895,0.2661209,0.4988212,-9.598032,0,0,30.5865,1,1,7973,996
8506,2023-01-20 11:09:06.959515,181254169,0,-0.01349291,0.4375277,-0.5850291,0.3075233,0.4239389,-9.497348,0,0,30.58894,1,1,7973,996
8513,2023-01-20 11:09:07.000274,181294923,0,0.09424324,0.3853384,-0.5979362,0.3045176,0.5610359,-9.519658,0,0,30.59091,1,1,7973,996
8538,2023-01-20 11:09:07.039515,181334163,0,0.03894636,0.216929,-0.5719936,0.3915682,0.506992,-9.568789,0,0,30.59302,1,1,7973,996
8540,2023-01-20 11:09:07.079563,181374210,0,0.0377135,0.1951504,-0.5587552,0.3497374,0.4534859,-9.683728,0,0,30.59544,1,1,7973,996
8568,2023-01-20 11:09:07.119543,181414189,0,0.1179528,0.243866,-0.5551049,0.1797622,0.53668,-9.816103,0,0,30.59685,1,1,7973,996
8569,2023-01-20 11:09:07.159515,181454160,0,0.1916328,0.1536953,-0.5390472,0.2269396,0.6048288,-9.854446,0,0,30.5983,1,1,7973,996
8578,2023-01-20 11:09:07.200479,181495123,0,0.1830278,0.1169061,-0.5169638,0.1593162,0.4539811,-9.94864,0,0,30.59942,1,1,7973,996
8603,2023-01-20 11:09:07.239514,181534157,0,0.2201169,0.08928652,-0.4859254,0.09688358,0.5068495,-10.11698,0,0,30.6005,1,1,7973,996
8605,2023-01-20 11:09:07.279537,181574180,0,0.253314,0.1053898,-0.4332337,0.1357607,0.5315497,-10.22407,0,0,30.60189,1,1,7973,996
8633,2023-01-20 11:09:07.319510,181614152,0,0.1464014,0.1479111,-0.3710107,0.1058829,0.4287304,-10.4492,0,0,30.60257,1,1,7973,996
8635,2023-01-20 11:09:07.359534,181654175,0,0.1703381,0.1276472,-0.3534451,0.14272,0.5522516,-10.55333,0,0,30.60355,1,1,7973,996
8642,2023-01-20 11:09:07.400209,181694850,0,0.2347679,0.06487799,-0.3583722,0.1491342,0.5680879,-10.55472,0,0,30.60524,1,1,7973,996
8669,2023-01-20 11:09:07.439521,181734167,0,0.2561904,0.0661599,-0.3504806,-0.007460232,0.4896938,-10.64669,0,0,30.60699,1,1,7973,996
8671,2023-01-20 11:09:07.479536,181774186,0,0.2486254,0.2393147,-0.3080195,-0.2732553,0.4504071,-10.86164,0,0,30.60809,1,1,7973,996
8699,2023-01-20 11:09:07.519534,181814189,0,0.3173731,0.2512089,-0.2849668,-0.2221939,0.5464759,-10.83357,0,0,30.60839,1,1,7973,996
8700,2023-01-20 11:09:07.559531,181854191,0,0.4353198,-0.1089899,-0.2838584,-0.0222371,0.681478,-10.65459,0,0,30.60955,1,1,7973,996
8707,2023-01-20 11:09:07.600272,181894937,0,0.3157991,-0.1897168,-0.2371442,-0.05984639,0.5946415,-10.55767,0,0,30.61024,1,1,7973,996
8732,2023-01-20 11:09:07.639513,181934170,0,0.1282972,-0.1056146,-0.1998759,-0.2539257,0.3952356,-10.72636,0,0,30.6109,1,1,7973,996
8734,2023-01-20 11:09:07.679554,181974203,0,0.07351603,-0.04922413,-0.160203,-0.2017925,0.4502096,-10.70566,0,0,30.61197,1,1,7973,996
8762,2023-01-20 11:09:07.719522,182014163,0,0.1287783,-0.2102474,-0.1054878,-0.09856158,0.5942968,-10.53373,0,0,30.61303,1,1,7973,996
8763,2023-01-20 11:09:07.759535,182054167,0,0.03334797,-0.3362541,-0.03091916,-0.08403859,0.6043006,-10.43443,0,0,30.61414,1,1,7973,996
8772,2023-01-20 11:09:07.800425,182095049,0,-0.02805116,-0.2483188,-0.002833014,-0.1723451,0.513232,-10.33498,0,0,30.61567,1,1,7973,996
8797,2023-01-20 11:09:07.839529,182134158,0,0.09285355,-0.1097977,0.0686107,-0.2905366,0.6655446,-10.31342,0,0,30.61716,1,1,7973,996
8799,2023-01-20 11:09:07.879577,182174211,0,0.0665178,-0.2725527,0.1193164,-0.006617512,0.5784984,-10.1243,0,0,30.61879,1,1,7973,996
8829,2023-01-20 11:09:07.919518,182214156,0,0.007411187,-0.4302751,0.09989962,0.1555855,0.5102814,-10.22424,0,0,30.62025,1,1,7973,996
8830,2023-01-20 11:09:07.959545,182254188,0,0.02060555,-0.5896702,0.09539698,0.05221051,0.5283349,-10.20929,0,0,30.62178,1,1,7973,996
8837,2023-01-20 11:09:08.000289,182294937,0,0.05885487,-0.5235268,0.0831342,-0.1278459,0.5719785,-10.15688,0,0,30.62329,1,1,7973,996
8862,2023-01-20 11:09:08.039516,182334171,0,0.02222833,-0.3771074,0.06356142,-0.2156378,0.5926372,-10.06633,0,0,30.6244,1,1,7973,996
8863,2023-01-20 11:09:08.079496,182374158,0,0.003761053,-0.240952,0.02699938,-0.1761831,0.675948,-9.870923,0,0,30.62566,1,1,7973,996
8892,2023-01-20 11:09:08.119545,182414214,0,-0.04737344,-0.1675762,-0.03926633,-0.06028913,0.6343975,-9.839417,0,0,30.6276,1,1,7973,996
8893,2023-01-20 11:09:08.159499,182454176,0,-0.02404861,-0.06778268,-0.06404897,-0.1308179,0.6592329,-9.799737,0,0,30.62926,1,1,7973,996
8901,2023-01-20 11:09:08.200266,182494950,0,0.02710282,-0.06912471,-0.0807402,-0.02921021,0.6802847,-9.75261,0,0,30.63059,1,1,7973,996
8927,2023-01-20 11:09:08.239477,182534152,0,0.01652895,0.1210136,-0.1023059,-0.07287993,0.6446955,-9.896247,0,0,30.63206,1,1,7973,996
8928,2023-01-20 11:09:08.279555,182574221,0,-0.04668353,0.2410261,-0.1309657,-0.04886757,0.5228487,-10.07458,0,0,30.63454,1,1,7973,996
8957,2023-01-20 11:09:08.319525,182614181,0,-0.1093642,0.2416021,-0.1427649,-0.06062439,0.4405677,-10.42683,0,0,30.63682,1,1,7973,996
8958,2023-01-20 11:09:08.359525,182654172,0,-0.07894301,0.3290709,-0.1175564,-0.1700821,0.6044257,-10.46015,0,0,30.63966,1,1,7973,996
8965,2023-01-20 11:09:08.400208,182694846,0,-0.003910287,0.1128347,-0.1155691,0.03552871,0.6524551,-10.36528,0,0,30.64264,1,1,7973,996
8992,2023-01-20 11:09:08.439539,182734189,0,0.01442971,0.04591845,-0.1344688,-0.09539858,0.6678529,-10.44902,0,0,30.6452,1,1,7973,996
8993,2023-01-20 11:09:08.479525,182774188,0,-0.06380705,0.2355703,-0.1504208,-0.2735932,0.6857592,-10.40195,0,0,30.6477,1,1,7973,996
9022,2023-01-20 11:09:08.519500,182814176,0,-0.09697076,0.2747473,-0.1676209,-0.1430328,0.6706014,-10.30885,0,0,30.64967,1,1,7973,996
9023,2023-01-20 11:09:08.559487,182854175,0,-0.01609438,0.1276817,-0.197135,-0.1089857,0.7075327,-10.08087,0,0,30.65074,1,1,7973,996
9030,2023-01-20 11:09:08.600263,182894964,0,-0.005545667,0.08501948,-0.1809439,-0.2462159,0.7139404,-10.17418,0,0,30.65156,1,1,7973,996
9055,2023-01-20 11:09:08.639466,182934154,0,-0.03855422,0.1469573,-0.1429854,-0.2323784,0.72315,-10.27364,0,0,30.65217,1,1,7973,996
9056,2023-01-20 11:09:08.679509,182974184,0,-0.03558736,-0.1335548,-0.184532,-0.1026069,0.6134715,-10.33156,0,0,30.65252,1,1,7973,996
9085,2023-01-20 11:09:08.719519,183014181,0,-0.1151774,-0.06030459,-0.1936423,-0.3502686,0.4997986,-10.44227,0,0,30.6517,1,1,7973,996
9086,2023-01-20 11:09:08.759524,183054173,0,-0.08646066,0.1303089,-0.1944552,-0.3495248,0.5352759,-10.28466,0,0,30.65231,1,1,7973,996
9095,2023-01-20 11:09:08.800397,183095033,0,0.09533516,-0.09887447,-0.2232171,-0.1640432,0.6448989,-10.03794,0,0,30.65316,1,1,7973,996
9122,2023-01-20 11:09:08.839510,183134151,0,0.06581259,-0.1639705,-0.215242,-0.2361147,0.6504294,-9.918936,0,0,30.65451,1,1,7973,996
9123,2023-01-20 11:09:08.879543,183174189,0,0.02208073,-0.01868245,-0.1925692,-0.2085476,0.6814876,-9.872854,0,0,30.65622,1,1,7973,996
9154,2023-01-20 11:09:08.919513,183214165,0,0.006609815,-0.1129719,-0.2065535,-0.03344494,0.6739292,-9.795981,0,0,30.65798,1,1,7973,996
9155,2023-01-20 11:09:08.959531,183254188,0,-0.01385969,-0.3277865,-0.2104332,0.03128405,0.6286708,-9.599149,0,0,30.6602,1,1,7973,996
9162,2023-01-20 11:09:09.000242,183294928,0,-0.09767981,-0.2037038,-0.1905396,-0.141767,0.6933525,-9.816235,0,0,30.66231,1,1,7973,996
9187,2023-01-20 11:09:09.036001,183334183,0,-0.1117144,-0.1804609,-0.175572,0.03306032,0.7415854,-10.08203,0,0,30.66481,1,1,7973,996
9188,2023-01-20 11:09:09.072431,183374174,0,-0.09439351,-0.2842716,-0.19037,0.1352863,0.6850213,-10.0708,0,0,30.6677,1,1,7973,996
9217,2023-01-20 11:09:09.108878,183414184,0,-0.06722437,-0.2532703,-0.209939,0.09140038,0.7016727,-9.91248,0,0,30.67064,1,1,7973,996
9218,2023-01-20 11:09:09.145322,183454191,0,-0.001311476,-0.2147152,-0.1834357,-0.11758,0.7200816,-9.777314,0,0,30.67326,1,1,7973,996
9224,2023-01-20 11:09:09.182436,183494934,0,-0.1332354,-0.01003984,-0.1597977,-0.2811595,0.6123077,-9.737157,0,0,30.67547,1,1,7973,996
9253,2023-01-20 11:09:09.219935,183534153,0,-0.07247925,0.1461891,-0.1358474,-0.2326297,0.7084492,-9.813309,0,0,30.6777,1,1,7973,996
9254,2023-01-20 11:09:09.259949,183574172,0,0.009359946,0.004746486,-0.1435874,0.04172456,0.7083294,-9.907974,0,0,30.6804,1,1,7973,996
9283,2023-01-20 11:09:09.299954,183614182,0,0.006192168,0.0315274,-0.1399023,-0.07273698,0.7265039,-10.17093,0,0,30.68328,1,1,7973,996
9284,2023-01-20 11:09:09.339931,183654164,0,0.01927789,0.1178418,-0.09829173,-0.1027253,0.8261789,-10.15231,0,0,30.68574,1,1,7973,996
9289,2023-01-20 11:09:09.380538,183694776,0,0.1604428,-0.05818743,-0.1059429,0.01644401,0.9129485,-9.995289,0,0,30.68837,1,1,7973,996
9318,2023-01-20 11:09:09.419909,183734149,0,0.2110687,-0.1373754,-0.1108237,-0.04142284,0.855646,-9.832952,0,0,30.69136,1,1,7973,996
9319,2023-01-20 11:09:09.459952,183774190,0,0.05327436,0.1105731,-0.08869831,-0.2212701,0.6450946,-9.966689,0,0,30.69401,1,1,7973,996
9348,2023-01-20 11:09:09.499927,183814163,0,-0.04081744,0.1333266,-0.08039238,-0.02311211,0.6281133,-9.817738,0,0,30.69604,1,1,7973,996
9349,2023-01-20 11:09:09.539959,183854194,0,-0.003839428,-0.03007973,-0.09797719,-0.04500777,0.6581354,-9.889153,0,0,30.69813,1,1,7973,996
9354,2023-01-20 11:09:09.580587,183894820,0,-0.1313501,0.1053321,-0.04833059,-0.1884999,0.6877845,-9.995294,0,0,30.7003,1,1,7973,996
9381,2023-01-20 11:09:09.619964,183934192,0,-0.04814987,0.071887,-0.04399949,-0.06386548,0.8214421,-9.827024,0,0,30.70316,1,1,7973,996
9382,2023-01-20 11:09:09.659970,183974190,0,0.02360822,-0.03828327,-0.04810371,-0.1801651,0.8954554,-9.813965,0,0,30.70635,1,1,7973,996
9412,2023-01-20 11:09:09.699965,184014177,0,-0.06445927,0.1719422,-0.03224915,-0.213939,0.7255535,-10.06456,0,0,30.70968,1,1,7973,996
9413,2023-01-20 11:09:09.739974,184054179,0,-0.02650687,0.09296115,-0.05584741,-0.1968122,0.7070279,-9.989153,0,0,30.71298,1,1,7973,996
9420,2023-01-20 11:09:09.780830,184095027,0,-0.02178226,0.2251808,-0.06765547,-0.3070419,0.7768736,-9.938416,0,0,30.71608,1,1,7973,996
9448,2023-01-20 11:09:09.819971,184134169,0,0.01774724,0.2873024,-0.06325718,-0.2118189,0.6980557,-9.852522,0,0,30.71866,1,1,7973,996
9449,2023-01-20 11:09:09.859996,184174203,0,0.04354706,0.2125112,-0.07524401,-0.2102391,0.7230008,-9.943671,0,0,30.72173,1,1,7973,996
9480,2023-01-20 11:09:09.899952,184214169,0,0.05478872,0.3245052,-0.04596913,-0.1515041,0.7361459,-9.852753,0,0,30.72554,1,1,7973,996
9481,2023-01-20 11:09:09.939998,184254224,0,0.07976346,0.09797622,-0.07489949,-0.127484,0.7605695,-9.912063,0,0,30.72886,1,1,7973,996
9486,2023-01-20 11:09:09.980554,184294789,0,0.007967449,0.1636333,-0.06307963,-0.08733214,0.7493995,-9.96435,0,0,30.73186,1,1,7973,996
9513,2023-01-20 11:09:10.019906,184334147,0,-0.007327587,0.00485386,-0.1151815,-0.1472903,0.762365,-10.06759,0,0,30.73458,1,1,7973,996
9514,2023-01-20 11:09:10.059931,184374174,0,-0.04410108,0.1685693,-0.1041624,-0.1711073,0.8442426,-10.20877,0,0,30.73662,1,1,7973,996
9543,2023-01-20 11:09:10.099967,184414211,0,0.06757414,0.02599634,-0.1430234,-0.2713,0.9463406,-9.902119,0,0,30.73887,1,1,7973,996
9544,2023-01-20 11:09:10.139937,184454183,0,0.05204551,0.2182534,-0.1198215,-0.2185737,0.9065084,-9.898374,0,0,30.74125,1,1,7973,996
9550,2023-01-20 11:09:10.180533,184494781,0,0.104262,-0.01642665,-0.1420979,-0.1511256,0.8838121,-9.839249,0,0,30.74387,1,1,7973,996
9578,2023-01-20 11:09:10.219896,184534145,0,0.06296728,0.1168701,-0.1180838,-0.1779429,0.8885874,-10.16566,0,0,30.7463,1,1,7973,996
9579,2023-01-20 11:09:10.259963,184574212,0,0.07750776,-0.1552339,-0.1855776,-0.1866648,0.8030897,-10.05183,0,0,30.74853,1,1,7973,996
9608,2023-01-20 11:09:10.299926,184614175,0,-0.01073834,-0.040026,-0.176573,-0.2886354,0.7082689,-9.934561,0,0,30.75033,1,1,7973,996
9609,2023-01-20 11:09:10.339929,184654179,0,-0.04809749,-0.1856063,-0.1978705,-0.2530761,0.6918535,-9.981112,0,0,30.75231,1,1,7973,996
9614,2023-01-20 11:09:10.380481,184694731,0,-0.1349673,0.03318896,-0.1883052,-0.3886739,0.6461581,-9.992977,0,0,30.75428,1,1,7973,996
9643,2023-01-20 11:09:10.419918,184734190,0,-0.0397201,-0.1164677,-0.2383317,-0.2336473,0.6890827,-9.842953,0,0,30.75559,1,1,7973,996
9644,2023-01-20 11:09:10.459875,184774191,0,0.04433988,0.006198878,-0.2168987,-0.4054048,0.8413764,-9.71562,0,0,30.75691,1,1,7973,996
9675,2023-01-20 11:09:10.500093,184814454,0,0.1419571,-0.08016015,-0.1910808,-0.2664946,0.8306817,-9.497459,0,0,30.75813,1,1,7973,996
9676,2023-01-20 11:09:10.539772,184854177,0,0.1006499,-0.1136974,-0.1775387,-0.3847564,0.8156889,-9.688367,0,0,30.75935,1,1,7973,996
9681,2023-01-20 11:09:10.580193,184894643,0,0.01860067,0.04638268,-0.1292719,-0.320233,0.7823971,-9.547267,0,0,30.76089,1,1,7973,996
9708,2023-01-20 11:09:10.619705,184934164,0,0.03541241,-0.1308749,-0.1691324,-0.218093,0.8025719,-9.673118,0,0,30.76284,1,1,7973,996
9709,2023-01-20 11:09:10.659757,184974189,0,-0.01834037,0.119244,-0.1669798,-0.4248595,0.7049466,-9.864284,0,0,30.76534,1,1,7973,996
9738,2023-01-20 11:09:10.699764,185014170,0,-0.05011356,0.03569452,-0.1622101,-0.2712995,0.6826054,-9.762015,0,0,30.76674,1,1,7973,996
9739,2023-01-20 11:09:10.739786,185054165,0,-0.02498301,-0.1038913,-0.1474434,-0.4258395,0.7957605,-9.763669,0,0,30.76788,1,1,7973,996
9746,2023-01-20 11:09:10.780521,185094873,0,-0.1783119,0.03654783,-0.1116791,-0.373684,0.6634049,-9.730814,0,0,30.76852,1,1,7973,996
9773,2023-01-20 11:09:10.819828,185134171,0,-0.05945072,-0.1035228,-0.1489397,-0.2011859,0.7984191,-9.762946,0,0,30.76991,1,1,7973,996
9774,2023-01-20 11:09:10.859823,185174176,0,-0.01082801,0.05273493,-0.1015432,-0.4239044,0.9353378,-9.805691,0,0,30.77151,1,1,7973,996
9805,2023-01-20 11:09:10.899816,185214177,0,0.04777228,-0.08475818,-0.1035188,-0.2255257,0.8517485,-9.626865,0,0,30.77351,1,1,7973,996
9806,2023-01-20 11:09:10.939801,185254172,0,-0.06302916,-0.1607806,-0.1470006,-0.2430805,0.7530923,-9.562265,0,0,30.77619,1,1,7973,996
9811,2023-01-20 11:09:10.980283,185294662,0,-0.05743082,0.0357337,-0.1019554,-0.442497,0.8720198,-9.630566,0,0,30.77957,1,1,7973,996
9839,2023-01-20 11:09:11.019778,185334164,0,-0.01040951,0.06230286,-0.06460816,-0.3085504,0.840118,-9.301189,0,0,30.78302,1,1,7973,996
9840,2023-01-20 11:09:11.059784,185374173,0,-0.06217881,-0.03894043,-0.0884618,-0.2723314,0.6949008,-9.39502,0,0,30.78621,1,1,7973,996
9869,2023-01-20 11:09:11.099785,185414176,0,-0.1810419,0.09055831,-0.06681386,-0.42171,0.6296126,-9.535511,0,0,30.78902,1,1,7973,996
9870,2023-01-20 11:09:11.139766,185454160,0,-0.08434597,0.04262986,-0.03271397,-0.3219424,0.7947671,-9.429982,0,0,30.79151,1,1,7973,996
9875,2023-01-20 11:09:11.180272,185494669,0,-0.03862972,-0.243178,-0.0622958,-0.2302357,0.7058607,-9.356474,0,0,30.79467,1,1,7973,996
9904,2023-01-20 11:09:11.219816,185534218,0,-0.03234968,-0.04079881,-0.06889006,-0.3716941,0.7028335,-9.32253,0,0,30.79764,1,1,7973,996
9905,2023-01-20 11:09:11.259760,185574167,0,0.02556278,0.06373037,-0.04813472,-0.6059102,0.8416148,-9.1697,0,0,30.80044,1,1,7973,996
9934,2023-01-20 11:09:11.299738,185614151,0,0.07374512,0.04440777,-0.05241581,-0.4858954,0.7590229,-9.11141,0,0,30.80312,1,1,7973,996
9935,2023-01-20 11:09:11.339758,185654177,0,0.05692839,0.06085913,-0.104159,-0.5487593,0.6680921,-9.577458,0,0,30.80582,1,1,7973,996
9939,2023-01-20 11:09:11.380211,185694635,0,-0.08505379,0.2803807,-0.1077099,-0.5185534,0.6270058,-9.592178,0,0,30.80807,1,1,7973,996
9969,2023-01-20 11:09:11.419740,185734166,0,-0.06715969,0.1067014,-0.1277897,-0.300257,0.6400895,-9.691081,0,0,30.80953,1,1,7973,996
9970,2023-01-20 11:09:11.459741,185774166,0,-0.06305956,-0.1073584,-0.124893,-0.3267575,0.7188523,-9.688372,0,0,30.81066,1,1,7973,996
9999,2023-01-20 11:09:11.499746,185814169,0,0.007507302,0.0691762,-0.09279899,-0.4147901,0.7646289,-9.530902,0,0,30.81261,1,1,7973,996
10000,2023-01-20 11:09:11.539766,185854187,0,-0.01502074,0.08974961,-0.09960546,-0.3040228,0.5522612,-9.632524,0,0,30.81486,1,1,7973,996
10004,2023-01-20 11:09:11.580238,185894658,0,0.1045864,-0.01433252,-0.09114614,-0.2832635,0.6613492,-9.659347,0,0,30.81731,1,1,7973,996
10032,2023-01-20 11:09:11.619747,185934162,0,0.1113614,0.04808354,-0.02166774,-0.3210333,0.7295559,-9.742629,0,0,30.82002,1,1,7973,996
10033,2023-01-20 11:09:11.659750,185974157,0,0.1085533,0.0822291,0.03799425,-0.2311749,0.6921474,-9.555874,0,0,30.82297,1,1,7973,996
10062,2023-01-20 11:09:11.699787,186014186,0,0.02219291,-0.09095953,0.01835001,-0.00970734,0.6173984,-9.546268,0,0,30.82564,1,1,7973,996
10063,2023-01-20 11:09:11.739777,186054168,0,0.03610829,-0.1958799,0.02605345,-0.1550235,0.6691515,-9.590118,0,0,30.82866,1,1,7973,996
10069,2023-01-20 11:09:11.780327,186094710,0,-0.01373955,-0.02644858,0.05284396,-0.3762685,0.7207433,-9.381923,0,0,30.83142,1,1,7973,996
10097,2023-01-20 11:09:11.819763,186134143,0,-0.06480507,-0.04229786,0.03593725,-0.254522,0.5306538,-9.566949,0,0,30.8342,1,1,7973,996
10098,2023-01-20 11:09:11.859871,186174253,0,-0.06600569,-0.08488438,-0.007780815,-0.1896059,0.6294379,-9.607408,0,0,30.83679,1,1,7973,996
10129,2023-01-20 11:09:11.899782,186214167,0,-0.03734798,-0.0432785,0.006307418,-0.3854983,0.7292191,-9.604456,0,0,30.8395,1,1,7973,996
10130,2023-01-20 11:09:11.939812,186254199,0,0.002892449,0.0661505,0.02713918,-0.4064144,0.7512493,-9.391338,0,0,30.84133,1,1,7973,996
10134,2023-01-20 11:09:11.980194,186294583,0,0.06914082,-0.03900113,0.001963583,-0.2704525,0.7980584,-9.43462,0,0,30.84308,1,1,7973,996
10162,2023-01-20 11:09:12.019795,186334191,0,0.07514556,-0.05079104,-0.03361282,-0.3724998,0.7642828,-9.30451,0,0,30.84504,1,1,7973,996
10163,2023-01-20 11:09:12.059758,186374166,0,-0.003024724,0.181344,-0.003060517,-0.4068553,0.7491834,-9.357463,0,0,30.84737,1,1,7973,996
10191,2023-01-20 11:09:12.099755,186414175,0,0.07537006,0.02611285,-0.002732194,-0.2378903,0.7728049,-9.551306,0,0,30.84999,1,1,7973,996
10193,2023-01-20 11:09:12.139741,186454173,0,0.1088372,-0.08504915,-0.00427394,-0.233271,0.8220763,-9.500648,0,0,30.85215,1,1,7973,996
10198,2023-01-20 11:09:12.180145,186494589,0,-0.001939523,0.08061589,0.01106966,-0.3023707,0.7995437,-9.646126,0,0,30.85441,1,1,7973,996
10227,2023-01-20 11:09:12.219690,186534133,0,-0.00507914,-0.05249171,-0.01038917,-0.09448928,0.7167592,-9.601108,0,0,30.85732,1,1,7973,996
10228,2023-01-20 11:09:12.259749,186574179,0,0.0108832,-0.009452814,-0.03293093,-0.2453905,0.7121355,-9.445204,0,0,30.86003,1,1,7973,996
10256,2023-01-20 11:09:12.299759,186614176,0,-0.0603934,0.1444557,0.01189283,-0.2754419,0.6703269,-9.501202,0,0,30.86275,1,1,7973,996
10259,2023-01-20 11:09:12.339773,186654177,0,0.01556302,-0.03816326,-0.006305823,-0.1373637,0.7297263,-9.569128,0,0,30.8652,1,1,7973,996
10263,2023-01-20 11:09:12.380152,186694542,0,0.01046701,-0.007197943,0.02130187,-0.3205411,0.6977125,-9.808554,0,0,30.86724,1,1,7973,996
10293,2023-01-20 11:09:12.419781,186734170,0,0.01489042,0.03997136,0.04966103,-0.2617316,0.6793254,-9.676712,0,0,30.86928,1,1,7973,996
10294,2023-01-20 11:09:12.459786,186774184,0,-0.009347463,-0.1543716,-0.01110759,-0.09537254,0.6170086,-9.636849,0,0,30.87119,1,1,7973,996
10322,2023-01-20 11:09:12.499769,186814177,0,-0.09929612,-0.02331074,0.006381182,-0.3025262,0.5102875,-9.601786,0,0,30.87321,1,1,7973,996
10324,2023-01-20 11:09:12.539754,186854171,0,-0.09978911,0.0462091,0.01040802,-0.2567706,0.5724959,-9.652688,0,0,30.87536,1,1,7973,996
10328,2023-01-20 11:09:12.580129,186894555,0,0.03550415,-0.1657405,-0.003054202,-0.2417917,0.715834,-9.44107,0,0,30.87732,1,1,7973,996
10356,2023-01-20 11:09:12.619746,186934171,0,0.02753987,-0.04092235,0.01363924,-0.3578521,0.6886054,-9.250885,0,0,30.87891,1,1,7973,996
10357,2023-01-20 11:09:12.659750,186974162,0,0.01203784,-0.04795197,-0.006496945,-0.2042787,0.5940776,-9.399809,0,0,30.88023,1,1,7973,996
10385,2023-01-20 11:09:12.699770,187014170,0,0.03765165,-0.1912771,-0.05987274,-0.1772448,0.61005,-9.365083,0,0,30.88074,1,1,7973,996
10387,2023-01-20 11:09:12.739768,187054156,0,-0.01379609,0.00728618,-0.04497351,-0.311118,0.7423618,-9.355457,0,0,30.88064,1,1,7973,996
10393,2023-01-20 11:09:12.780295,187094670,0,0.003433009,0.05332083,-0.02361715,-0.2021083,0.7956838,-9.249221,0,0,30.88148,1,1,7973,996
10421,2023-01-20 11:09:12.819828,187134198,0,0.05190603,-0.1202578,-0.04062891,0.04923323,0.7435941,-9.247406,0,0,30.88306,1,1,7973,996
10422,2023-01-20 11:09:12.859798,187174171,0,0.08174835,-0.05721369,-0.06848843,-0.1232487,0.6882325,-9.176765,0,0,30.88426,1,1,7973,996
10452,2023-01-20 11:09:12.899780,187214155,0,0.0489963,0.07282808,-0.03632981,-0.2639892,0.6477771,-8.99908,0,0,30.88556,1,1,7973,996
10454,2023-01-20 11:09:12.939807,187254185,0,-0.1139318,-0.0003917295,0.00102888,-0.1403548,0.5384195,-8.739432,0,0,30.88739,1,1,7973,996
10458,2023-01-20 11:09:12.980222,187294603,0,-0.1541632,0.02186783,-0.01925297,-0.01270607,0.5852566,-8.566216,0,0,30.88965,1,1,7973,996
10486,2023-01-20 11:09:13.019778,187334161,0,0.05463584,0.0757606,-0.007676396,-0.1777023,0.737204,-8.237205,0,0,30.89202,1,1,7973,996
10487,2023-01-20 11:09:13.059772,187374158,0,-0.1193183,0.05177792,0.009883302,-0.07927683,0.6477946,-7.995959,0,0,30.89409,1,1,7973,996
10515,2023-01-20 11:09:13.099766,187414155,0,-0.06562855,0.0626866,0.01463243,-0.1182921,0.4688211,-7.732948,0,0,30.89561,1,1,7973,996
10517,2023-01-20 11:09:13.139774,187454166,0,-0.06857571,0.05724671,0.02288616,-0.09589103,0.7195863,-7.600909,0,0,30.89718,1,1,7973,996
10522,2023-01-20 11:09:13.180180,187494575,0,0.01660415,0.0836424,0.01993223,0.002894823,0.5394987,-7.526241,0,0,30.89939,1,1,7973,996
10551,2023-01-20 11:09:13.219774,187534168,0,0.02949271,0.06456064,0.01863311,-0.05646177,0.7580524,-7.585371,0,0,30.9018,1,1,7973,996
10552,2023-01-20 11:09:13.259811,187574200,0,0.06194145,0.1389063,0.01753014,0.0368933,0.6637717,-7.737369,0,0,30.90441,1,1,7973,996
10580,2023-01-20 11:09:13.299791,187614175,0,0.06670407,0.1744396,0.008665672,-0.2176632,0.7793602,-7.872246,0,0,30.90699,1,1,7973,996
10582,2023-01-20 11:09:13.339793,187654172,0,-0.005707178,0.1891399,0.01497588,-0.1670432,0.6519139,-8.062933,0,0,30.91002,1,1,7973,996
10586,2023-01-20 11:09:13.380176,187694550,0,0.01986027,0.1428689,-0.001591049,-0.139944,0.7042086,-8.09928,0,0,30.91367,1,1,7973,996
10616,2023-01-20 11:09:13.419811,187734189,0,0.03925348,0.07483029,0.0394381,-0.1481381,0.6501597,-8.211569,0,0,30.91668,1,1,7973,996
10617,2023-01-20 11:09:13.459792,187774181,0,-0.04683086,0.06912704,0.007263838,-0.1584537,0.5869481,-8.148973,0,0,30.9189,1,1,7973,996
10645,2023-01-20 11:09:13.500035,187814436,0,0.03891412,0.08107357,0.02186573,-0.2437926,0.636336,-8.129504,0,0,30.92076,1,1,7973,996
10647,2023-01-20 11:09:13.539770,187854183,0,-0.01757397,0.05492989,0.02030253,-0.1525994,0.6362651,-8.194155,0,0,30.92244,1,1,7973,996
10651,2023-01-20 11:09:13.580138,187894562,0,0.01266674,-0.01139078,-0.007202664,-0.07860833,0.6965929,-8.145706,0,0,30.92414,1,1,7973,996
10679,2023-01-20 11:09:13.619725,187934150,0,0.1213592,-0.01753965,0.02181123,-0.1420274,0.7453293,-8.345654,0,0,30.92572,1,1,7973,996
10680,2023-01-20 11:09:13.659754,187974170,0,0.04183328,0.01507655,-0.01625649,-0.1648803,0.6593075,-8.462629,0,0,30.92761,1,1,7973,996
10708,2023-01-20 11:09:13.699801,188014207,0,0.07171009,0.01513544,0.00274126,-0.2742091,0.7766781,-8.489479,0,0,30.92985,1,1,7973,996
10710,2023-01-20 11:09:13.739774,188054171,0,0.08518653,0.1185883,-0.01626939,-0.2427488,0.7788303,-8.588957,0,0,30.93181,1,1,7973,996
10716,2023-01-20 11:09:13.780322,188094709,0,0.113742,0.0266078,-0.02914138,-0.2700079,0.7275917,-8.656128,0,0,30.9336,1,1,7973,996
10744,2023-01-20 11:09:13.819762,188134143,0,0.1265664,-0.005886112,-0.02659518,-0.281897,0.7295578,-8.791349,0,0,30.93451,1,1,7973,996
10745,2023-01-20 11:09:13.859820,188174199,0,0.3798577,0.1112357,-0.000408109,-0.3463994,0.9357091,-8.778462,0,0,30.9352,1,1,7973,996
10775,2023-01-20 11:09:13.899788,188214166,0,0.3119868,0.2656291,0.02185214,-0.3961343,0.7099582,-8.868602,0,0,30.93582,1,1,7973,996
10777,2023-01-20 11:09:13.939811,188254187,0,0.246677,0.2068711,0.02121095,-0.4253156,0.5382952,-8.949534,0,0,30.93721,1,1,7973,996
10781,2023-01-20 11:09:13.980235,188294609,0,0.2159753,0.09921215,0.04137805,-0.3962655,0.6987591,-8.942453,0,0,30.93893,1,1,7973,996
10809,2023-01-20 11:09:14.019767,188334142,0,0.1070016,-0.1249704,0.04809779,-0.1412612,0.53676,-9.044955,0,0,30.94053,1,1,7973,996
10810,2023-01-20 11:09:14.059796,188374175,0,0.08248014,-0.1756762,0.07816397,-0.2688353,0.5716833,-9.167933,0,0,30.94263,1,1,7973,996
10838,2023-01-20 11:09:14.099788,188414172,0,-0.06103243,-0.06800184,0.07028988,-0.2897128,0.5361972,-9.112937,0,0,30.94475,1,1,7973,996
10840,2023-01-20 11:09:14.139830,188454218,0,-0.006234157,-0.1155919,0.07079487,-0.2541084,0.5743585,-9.114203,0,0,30.94605,1,1,7973,996
10845,2023-01-20 11:09:14.180189,188494581,0,-0.0500927,-0.02810338,0.03591034,-0.2862438,0.5547097,-9.215368,0,0,30.94701,1,1,7973,996
10873,2023-01-20 11:09:14.219754,188534146,0,0.04384822,0.05502,0.007036586,-0.4734226,0.6205298,-9.274972,0,0,30.94777,1,1,7973,996
10875,2023-01-20 11:09:14.259789,188574177,0,-0.08130059,0.02402695,0.01272819,-0.5355287,0.6536553,-9.288266,0,0,30.94836,1,1,7973,996
10904,2023-01-20 11:09:14.299787,188614172,0,-0.1428988,-0.09783845,0.003114927,-0.3370487,0.5920989,-9.271826,0,0,30.94898,1,1,7973,996
10907,2023-01-20 11:09:14.339782,188654163,0,-0.2005965,-0.1817122,0.02127606,-0.3473498,0.5836698,-9.2607,0,0,30.94931,1,1,7973,996
10911,2023-01-20 11:09:14.380170,188694548,0,-0.1176407,-0.2447401,0.01395649,-0.2850908,0.5819874,-9.329125,0,0,30.95005,1,1,7973,996
10940,2023-01-20 11:09:14.419806,188734188,0,-0.06173986,-0.1706035,0.004526481,-0.4526431,0.5831879,-9.467921,0,0,30.95143,1,1,7973,996
10942,2023-01-20 11:09:14.459797,188774190,0,-0.203804,-0.1451878,-0.03737246,-0.2839656,0.4745966,-9.436393,0,0,30.95265,1,1,7973,996
10970,2023-01-20 11:09:14.500035,188814440,0,-0.1319352,-0.1570516,-0.04791882,-0.3723312,0.5894472,-9.360911,0,0,30.95374,1,1,7973,996
10972,2023-01-20 11:09:14.539763,188854180,0,-0.09594586,-0.2271288,-0.04084979,-0.2239315,0.5035231,-9.46068,0,0,30.95526,1,1,7973,996
10976,2023-01-20 11:09:14.580127,188894555,0,-0.03664675,-0.1951823,-0.04044968,-0.2756668,0.603058,-9.419464,0,0,30.95663,1,1,7973,996
11003,2023-01-20 11:09:14.619715,188934143,0,0.00383215,-0.2561692,-0.01607712,-0.2978328,0.5403385,-9.271675,0,0,30.95827,1,1,7973,996
11005,2023-01-20 11:09:14.659751,188974167,0,-0.1048199,-0.1666963,-0.01815432,-0.3711289,0.4316863,-9.589541,0,0,30.96002,1,1,7973,996
11033,2023-01-20 11:09:14.699813,189014217,0,-0.07633724,-0.06060762,0.01119592,-0.5511506,0.5095912,-9.728939,0,0,30.96126,1,1,7973,996
11035,2023-01-20 11:09:14.739789,189054180,0,-0.1916596,0.0700311,-0.005662461,-0.4017863,0.5401613,-9.94709,0,0,30.96242,1,1,7973,996
11041,2023-01-20 11:09:14.780308,189094687,0,-0.1645281,0.06686907,0.0538579,-0.346224,0.5451118,-9.756212,0,0,30.96341,1,1,7973,996
11068,2023-01-20 11:09:14.819786,189134163,0,-0.01953221,-0.0468281,0.03084585,-0.005596227,0.8251832,-9.774931,0,0,30.96484,1,1,7973,996
11070,2023-01-20 11:09:14.859790,189174175,0,0.1572122,-0.02864724,0.05303361,-0.1367811,0.7554203,-9.77501,0,0,30.96668,1,1,7973,996
11100,2023-01-20 11:09:14.899787,189214181,0,-0.09053895,0.1167186,0.01689866,-0.3084999,0.435518,-9.832967,0,0,30.96787,1,1,7973,996
11102,2023-01-20 11:09:14.939771,189254173,0,-0.1925014,0.2188792,0.03411661,-0.273763,0.544489,-9.683228,0,0,30.96793,1,1,7973,996
11106,2023-01-20 11:09:14.980153,189294563,0,-0.08005044,0.1079205,0.01166478,0.01875688,0.8705963,-9.818312,0,0,30.96794,1,1,7973,996
11133,2023-01-20 11:09:15.019724,189334136,0,0.03293226,-0.1425695,0.01357772,0.07409436,0.8237363,-9.414521,0,0,30.96918,1,1,7973,996
11135,2023-01-20 11:09:15.059757,189374165,0,-0.05476904,-0.2659086,-0.001114264,0.07992844,0.5075372,-9.599008,0,0,30.97074,1,1,7973,996
11163,2023-01-20 11:09:15.099763,189414167,0,-0.1270839,-0.2427516,0.01013362,-0.2006998,0.6582952,-9.757496,0,0,30.97204,1,1,7973,996
11165,2023-01-20 11:09:15.139774,189454173,0,-0.1069906,-0.1470783,0.03431018,-0.1931785,0.7894499,-9.762421,0,0,30.97321,1,1,7973,996
11170,2023-01-20 11:09:15.180172,189494567,0,-0.103229,-0.1017172,0.02264662,-0.1754921,0.8134532,-9.91418,0,0,30.97502,1,1,7973,996
11198,2023-01-20 11:09:15.219751,189534140,0,-0.04359365,-0.1698052,0.04092542,-0.1279647,0.7620392,-9.944194,0,0,30.97717,1,1,7973,996
11200,2023-01-20 11:09:15.259798,189574180,0,-0.09012768,-0.2053201,0.03274472,-0.1287423,0.6425511,-9.949443,0,0,30.97923,1,1,7973,996
11228,2023-01-20 11:09:15.299794,189614169,0,-0.1018474,-0.05063266,0.04022444,-0.271226,0.6448761,-9.987438,0,0,30.98124,1,1,7973,996
11233,2023-01-20 11:09:15.339799,189654166,0,-0.1356037,-0.004843271,0.0800733,-0.243494,0.6843411,-9.76522,0,0,30.98318,1,1,7973,996
11237,2023-01-20 11:09:15.380170,189694530,0,-0.3064435,-0.01829658,0.06031659,-0.09643595,0.6271491,-9.671555,0,0,30.9848,1,1,7973,996
11266,2023-01-20 11:09:15.419756,189734121,0,-0.2733756,0.02703163,0.08536978,-0.2213426,0.7156937,-9.610298,0,0,30.98668,1,1,7973,996
11268,2023-01-20 11:09:15.459782,189774166,0,-0.09589855,-0.06815777,0.09785565,-0.09125834,0.8171997,-9.67683,0,0,30.98861,1,1,7973,996
11297,2023-01-20 11:09:15.500331,189814734,0,-0.1687373,-0.06320722,0.06843973,-0.03269764,0.7555247,-9.601245,0,0,30.99016,1,1,7973,996
11300,2023-01-20 11:09:15.539736,189854158,0,-0.08667594,-0.08797232,0.08674352,-0.1694698,0.8180786,-9.467647,0,0,30.99169,1,1,7973,996
11304,2023-01-20 11:09:15.580112,189894553,0,-0.1232695,-0.1129938,0.1050521,-0.1317527,0.7183434,-9.496881,0,0,30.99383,1,1,7973,996
11331,2023-01-20 11:09:15.619686,189934127,0,-0.1513082,0.04484645,0.09007653,-0.2376463,0.8023985,-9.703911,0,0,30.99599,1,1,7973,996
11333,2023-01-20 11:09:15.659724,189974148,0,-0.06166313,0.07495278,0.1086347,-0.3018624,0.8308827,-9.555351,0,0,30.9976,1,1,7973,996
11361,2023-01-20 11:09:15.699733,190014139,0,-0.1085124,-0.06300486,0.09285925,-0.1128724,0.7206342,-9.750167,0,0,30.99894,1,1,7973,996
11363,2023-01-20 11:09:15.739777,190054165,0,-0.132782,-0.05590909,0.06168792,-0.1741256,0.7066186,-9.739085,0,0,31.00038,1,1,7973,996
11369,2023-01-20 11:09:15.780308,190094678,0,-0.05051816,-0.06648483,0.0692003,-0.2662098,0.8365063,-9.644527,0,0,31.00157,1,1,7973,996
11396,2023-01-20 11:09:15.819759,190134120,0,-0.1666412,0.04324169,0.08918668,-0.2980728,0.7692267,-9.576781,0,0,31.0025,1,1,7973,996
11398,2023-01-20 11:09:15.859826,190174187,0,-0.1553683,-0.04364854,0.06273711,-0.07924651,0.7495765,-9.379846,0,0,31.00372,1,1,7973,996
11428,2023-01-20 11:09:15.899787,190214148,0,-0.1175498,-0.2056234,0.03897969,-0.1762007,0.8597502,-9.143277,0,0,31.00431,1,1,7973,996
11430,2023-01-20 11:09:15.939809,190254170,0,-0.1094813,-0.06377077,0.06199158,-0.3507901,0.8495856,-9.622843,0,0,31.00542,1,1,7973,996
11434,2023-01-20 11:09:15.980187,190294548,0,-0.143919,0.06416791,0.07245596,-0.2713274,0.7732868,-9.799536,0,0,31.00707,1,1,7973,996
11461,2023-01-20 11:09:16.019758,190334120,0,-0.07219791,-0.126455,0.01948469,-0.09316602,0.8384107,-9.871519,0,0,31.00916,1,1,7973,996
11463,2023-01-20 11:09:16.059784,190374147,0,-0.09066304,-0.05558863,0.04466052,-0.1876569,0.8609533,-10.04762,0,0,31.01087,1,1,7973,996
11491,2023-01-20 11:09:16.099782,190414147,0,-0.09246324,-0.08824296,0.04791221,-0.1850321,0.7479945,-9.783275,0,0,31.0131,1,1,7973,996
11493,2023-01-20 11:09:16.139771,190454137,0,-0.08200215,-0.2108437,-0.00592558,-0.1448379,0.7419025,-9.896304,0,0,31.01542,1,1,7973,996
11498,2023-01-20 11:09:16.180189,190494556,0,-0.1547145,-0.03821568,0.01392327,-0.290188,0.7297517,-9.8748,0,0,31.01763,1,1,7973,996
11526,2023-01-20 11:09:16.219774,190534142,0,-0.1366234,-0.02999025,0.03425466,-0.1451775,0.7890543,-9.663834,0,0,31.01949,1,1,7973,996
11528,2023-01-20 11:09:16.259791,190574158,0,-0.01095328,-0.2456421,0.007562384,-0.01405664,0.8329874,-9.412109,0,0,31.02091,1,1,7973,996
11556,2023-01-20 11:09:16.299772,190614138,0,-0.174435,-0.1185959,0.02094023,-0.0715686,0.7309874,-9.738933,0,0,31.02183,1,1,7973,996
11558,2023-01-20 11:09:16.339772,190654138,0,-0.1617459,-0.03325084,0.02357532,-0.02573775,0.8133804,-9.857837,0,0,31.02276,1,1,7973,996
11562,2023-01-20 11:09:16.380159,190694524,0,0.0115756,-0.1551133,0.004615761,0.06527431,0.8944587,-9.949231,0,0,31.02414,1,1,7973,996
11591,2023-01-20 11:09:16.419820,190734188,0,-0.02719301,-0.1108815,-0.01375881,-0.1213429,0.8273288,-9.98385,0,0,31.02575,1,1,7973,996
11593,2023-01-20 11:09:16.459778,190774153,0,-0.09514396,0.0950496,-0.04335496,-0.08955359,0.8205677,-9.989267,0,0,31.02676,1,1,7973,996
11621,2023-01-20 11:09:16.500050,190814432,0,-0.05758399,-0.02424356,-0.1641448,-0.05425106,0.7873083,-9.89985,0,0,31.0283,1,1,7973,996
11623,2023-01-20 11:09:16.539803,190854192,0,-0.1932766,0.1507074,-0.2399967,-0.2087753,0.7453901,-10.05745,0,0,31.02944,1,1,7973,996
11627,2023-01-20 11:09:16.580182,190894579,0,-0.1815608,-0.07937641,-0.3994204,0.1078153,0.7295905,-10.02698,0,0,31.02938,1,1,7973,996
11654,2023-01-20 11:09:16.619742,190934139,0,-0.1798667,0.1078084,-0.5448598,-0.1137526,0.712491,-10.11866,0,0,31.02939,1,1,7973,996
11656,2023-01-20 11:09:16.659803,190974194,0,-0.1194948,-0.04449065,-0.7027788,-0.1500882,0.9066073,-10.02827,0,0,31.03011,1,1,7973,996
11684,2023-01-20 11:09:16.699752,191014138,0,-0.07127266,0.1551049,-0.7874449,-0.2009018,0.8736763,-9.810679,0,0,31.03123,1,1,7973,996
11685,2023-01-20 11:09:16.739760,191054140,0,-0.1802873,0.02799016,-0.9088568,-0.218497,0.8744168,-9.870762,0,0,31.0322,1,1,7973,996
11692,2023-01-20 11:09:16.780342,191094716,0,-0.008851805,-0.07778297,-1.028353,-0.1378351,0.8618326,-9.636454,0,0,31.03342,1,1,7973,996
11719,2023-01-20 11:09:16.819779,191134149,0,-0.1652775,0.01803269,-1.064885,-0.2162973,0.9074163,-9.678832,0,0,31.03497,1,1,7973,996
11721,2023-01-20 11:09:16.859779,191174147,0,-0.09627892,0.1426477,-1.129191,-0.6012493,0.8874261,-9.777201,0,0,31.03629,1,1,7973,996
11751,2023-01-20 11:09:16.899818,191214184,0,-0.1272747,-0.06591471,-1.190864,-0.3724638,0.9554948,-9.676295,0,0,31.03714,1,1,7973,996
11752,2023-01-20 11:09:16.939806,191254170,0,-0.03956822,0.03251683,-1.223853,-0.5007012,0.8887623,-9.611372,0,0,31.03788,1,1,7973,996
11757,2023-01-20 11:09:16.980174,191294536,0,-0.1761761,0.002936251,-1.235537,-0.7339409,0.8019621,-9.814644,0,0,31.0386,1,1,7973,996
11784,2023-01-20 11:09:17.019826,191334188,0,-0.09399442,-0.171304,-1.27224,-0.7412444,0.8522978,-9.755579,0,0,31.03929,1,1,7973,996
11786,2023-01-20 11:09:17.059772,191374135,0,0.02227414,-0.03717632,-1.249378,-0.754936,0.8962685,-9.755581,0,0,31.04007,1,1,7973,996
11814,2023-01-20 11:09:17.099786,191414150,0,0.09778073,-0.2342481,-1.31602,-0.7804556,0.9601972,-9.570662,0,0,31.03969,1,1,7973,996
11815,2023-01-20 11:09:17.139825,191454191,0,0.02751377,-0.3278824,-1.365687,-0.7797103,0.7499968,-9.600158,0,0,31.03887,1,1,7973,996
11821,2023-01-20 11:09:17.180171,191494538,0,-8.756806E-05,-0.2015802,-1.329534,-1.082766,0.7861265,-9.503658,0,0,31.03845,1,1,7973,996
11849,2023-01-20 11:09:17.219767,191534134,0,0.01593631,-0.369948,-1.346422,-1.130291,0.7751775,-9.727299,0,0,31.03836,1,1,7973,996
11851,2023-01-20 11:09:17.259819,191574183,0,-0.1389881,-0.1620046,-1.333588,-1.052625,0.3896497,-9.883414,0,0,31.03794,1,1,7973,996
11879,2023-01-20 11:09:17.299799,191614161,0,-0.04586843,-0.4119825,-1.353241,-0.9989779,0.6389237,-9.822099,0,0,31.03657,1,1,7973,996
11880,2023-01-20 11:09:17.339795,191654154,0,0.002012348,-0.2558165,-1.276112,-1.017091,0.607685,-9.77421,0,0,31.035,1,1,7973,996
11885,2023-01-20 11:09:17.380200,191694556,0,0.04760958,-0.1681724,-1.312736,-1.171421,0.4874138,-9.933396,0,0,31.03313,1,1,7973,996
11914,2023-01-20 11:09:17.419770,191734132,0,-0.04846106,0.1220901,-1.265647,-1.242434,0.4011183,-10.16553,0,0,31.03124,1,1,7973,996
11916,2023-01-20 11:09:17.459770,191774145,0,-0.1059309,-0.1530354,-1.251146,-1.126901,0.438156,-10.00557,0,0,31.02952,1,1,7973,996
11944,2023-01-20 11:09:17.500032,191814421,0,-0.1345577,-0.09798,-1.182452,-1.063891,0.4785725,-10.15033,0,0,31.02843,1,1,7973,996
11945,2023-01-20 11:09:17.539756,191854158,0,0.1435077,-0.09899254,-1.140722,-1.130549,0.4686986,-9.920676,0,0,31.02758,1,1,7973,996
11950,2023-01-20 11:09:17.580132,191894547,0,0.2244332,-0.2568149,-1.144771,-1.110222,0.4640091,-9.777825,0,0,31.02752,1,1,7973,996
11977,2023-01-20 11:09:17.619749,191934164,0,0.06964886,0.0875067,-1.043849,-1.449386,0.3671606,-9.92431,0,0,31.02842,1,1,7973,996
11979,2023-01-20 11:09:17.659738,191974140,0,-0.03355538,-0.1488239,-1.028228,-1.045158,0.1303253,-9.855118,0,0,31.02907,1,1,7973,996
12007,2023-01-20 11:09:17.699764,192014153,0,0.09213121,-0.1090471,-1.050658,-1.364962,0.413811,-9.922608,0,0,31.03022,1,1,7973,996
12008,2023-01-20 11:09:17.739774,192054149,0,0.06036903,-0.08808503,-0.9614263,-1.38795,0.3407981,-10.20045,0,0,31.03168,1,1,7973,996
12015,2023-01-20 11:09:17.780282,192094644,0,0.0724794,-0.2361988,-0.9553139,-1.255817,0.07999752,-10.24903,0,0,31.03335,1,1,7973,996
12042,2023-01-20 11:09:17.819781,192134137,0,0.01469696,-0.09393803,-0.8581275,-1.500471,0.007969786,-10.10347,0,0,31.035,1,1,7973,996
12044,2023-01-20 11:09:17.859830,192174187,0,-0.1535517,-0.274179,-0.788718,-1.30375,-0.003136514,-9.91986,0,0,31.03697,1,1,7973,996
12074,2023-01-20 11:09:17.899787,192214146,0,0.1700022,-0.250185,-0.6790415,-1.355448,0.1874452,-9.497633,0,0,31.03851,1,1,7973,996
12075,2023-01-20 11:09:17.939806,192254166,0,0.04752535,-0.2964509,-0.5957619,-1.303151,-0.1364179,-9.491872,0,0,31.03988,1,1,7973,996
12080,2023-01-20 11:09:17.980182,192294544,0,-0.03763571,-0.2297065,-0.468968,-1.436656,-0.3449913,-9.602164,0,0,31.04159,1,1,7973,996
12108,2023-01-20 11:09:18.019767,192334134,0,0.01350989,-0.2372869,-0.3868499,-1.234678,-0.2600309,-9.587431,0,0,31.0431,1,1,7973,996
12110,2023-01-20 11:09:18.059779,192374154,0,0.1616855,-0.2299355,-0.2737922,-1.404855,-0.2811751,-9.338037,0,0,31.04521,1,1,7973,996
12138,2023-01-20 11:09:18.099772,192414155,0,0.3315295,-0.02901493,-0.1451934,-1.703906,-0.1511232,-9.299503,0,0,31.04712,1,1,7973,996
12139,2023-01-20 11:09:18.139761,192454151,0,0.4450792,0.1878997,-0.0522847,-1.722209,-0.1741082,-9.801654,0,0,31.04875,1,1,7973,996
12145,2023-01-20 11:09:18.180141,192494539,0,0.4715573,0.202647,0.03587221,-1.658282,-0.206599,-10.26641,0,0,31.0508,1,1,7973,996
12173,2023-01-20 11:09:18.218006,192534182,0,0.4283507,0.1600405,0.1624934,-1.588428,-0.3912855,-10.39413,0,0,31.05261,1,1,7973,996
12175,2023-01-20 11:09:18.254394,192574156,0,0.278319,0.01286324,0.2055255,-1.331579,-0.438731,-9.919909,0,0,31.05453,1,1,7973,996
12203,2023-01-20 11:09:18.290806,192614155,0,0.3107107,-0.03906113,0.2386201,-1.628588,-0.2855285,-9.953102,0,0,31.0564,1,1,7973,996
12204,2023-01-20 11:09:18.327206,192654142,0,0.2978332,0.2938474,0.3142324,-1.897052,-0.2455991,-9.890933,0,0,31.05817,1,1,7973,996
12209,2023-01-20 11:09:18.363958,192694516,0,0.367026,0.1554136,0.3226635,-1.792667,-0.3316423,-10.22576,0,0,31.05962,1,1,7973,996
12238,2023-01-20 11:09:18.400215,192734324,0,0.2285561,0.3972,0.3967,-1.962585,-0.3960792,-10.28902,0,0,31.06112,1,1,7973,996
12240,2023-01-20 11:09:18.440026,192774163,0,0.2336245,0.01079207,0.4338472,-1.741002,-0.303849,-10.08586,0,0,31.06293,1,1,7973,996
12268,2023-01-20 11:09:18.480222,192814387,0,0.08554667,0.1052846,0.4995716,-1.903688,-0.3745112,-10.33983,0,0,31.06487,1,1,7973,996
12269,2023-01-20 11:09:18.519957,192854151,0,0.1112377,0.1657025,0.5455187,-2.079722,-0.08829847,-10.55385,0,0,31.06685,1,1,7973,996
12274,2023-01-20 11:09:18.560287,192894509,0,0.4614368,-0.07026153,0.5571538,-1.75719,0.4327733,-10.39014,0,0,31.06881,1,1,7973,996
12301,2023-01-20 11:09:18.600199,192934449,0,0.4167809,-0.06805471,0.5751804,-1.778263,0.07786688,-10.18179,0,0,31.07018,1,1,7973,996
12303,2023-01-20 11:09:18.639898,192974148,0,0.1886271,-0.05862949,0.5795665,-1.915307,-0.193436,-10.26227,0,0,31.07122,1,1,7973,996
12332,2023-01-20 11:09:18.679896,193014146,0,0.09920818,0.1245996,0.547094,-2.156601,0.03522023,-10.36245,0,0,31.07221,1,1,7973,996
12333,2023-01-20 11:09:18.719872,193054122,0,-0.00107036,0.2453532,0.5034244,-2.296065,-0.05234759,-10.78044,0,0,31.07379,1,1,7973,996
12340,2023-01-20 11:09:18.760404,193094653,0,0.144898,0.09275068,0.4494847,-2.074764,0.2063614,-10.80571,0,0,31.07523,1,1,7973,996
12367,2023-01-20 11:09:18.800182,193134431,0,0.2122014,-0.08756714,0.405705,-2.070392,0.07210398,-10.5777,0,0,31.0764,1,1,7973,996
12369,2023-01-20 11:09:18.839888,193174159,0,0.1155806,-0.1364395,0.3706479,-2.141825,-0.03041596,-10.25248,0,0,31.0776,1,1,7973,996
12399,2023-01-20 11:09:18.879876,193214169,0,0.005165753,-0.1244159,0.326447,-2.164184,-0.004239663,-10.15152,0,0,31.07906,1,1,7973,996
12400,2023-01-20 11:09:18.919849,193254165,0,0.07111983,-0.0784146,0.2714126,-2.200122,0.1265888,-10.40458,0,0,31.08043,1,1,7973,996
12405,2023-01-20 11:09:18.960191,193294529,0,0.1045179,-0.02796526,0.2275548,-2.19421,-0.0721667,-10.35179,0,0,31.08154,1,1,7973,996
12432,2023-01-20 11:09:19.000129,193334489,0,0.09622779,0.1310389,0.2306903,-2.275664,-0.2384732,-10.32547,0,0,31.08259,1,1,7973,996
12433,2023-01-20 11:09:19.039776,193374127,0,0.2471387,-0.01185346,0.2161308,-2.039528,0.1209296,-10.09938,0,0,31.08353,1,1,7973,996
12462,2023-01-20 11:09:19.079791,193414133,0,0.1308176,-0.06051231,0.227454,-2.184388,0.07821671,-10.03014,0,0,31.08542,1,1,7973,996
12463,2023-01-20 11:09:19.119861,193454193,0,0.1536459,0.01960933,0.1938882,-2.332613,0.2017068,-10.11899,0,0,31.08835,1,1,7973,996
12469,2023-01-20 11:09:19.160217,193494540,0,0.1955199,0.139101,0.1239954,-2.379596,0.114972,-9.798973,0,0,31.09127,1,1,7973,996
12497,2023-01-20 11:09:19.200141,193534455,0,0.2067304,0.103859,0.07087939,-2.400041,-0.02383968,-9.695124,0,0,31.09316,1,1,7973,996
12498,2023-01-20 11:09:19.239898,193574173,0,0.2615362,0.1561577,0.06932969,-2.523104,0.1094446,-9.849716,0,0,31.09501,1,1,7973,996
12527,2023-01-20 11:09:19.279918,193614154,0,0.1353863,0.1477042,0.04095672,-2.40022,0.1590729,-10.20419,0,0,31.09622,1,1,7973,996
12529,2023-01-20 11:09:19.319949,193654146,0,0.1174714,0.07973073,0.03509404,-2.342358,0.3135273,-10.38505,0,0,31.0961,1,1,7973,996
12534,2023-01-20 11:09:19.360409,193694566,0,0.1404172,0.0308629,-0.01293926,-2.35926,0.2860137,-10.27363,0,0,31.09638,1,1,7973,996
12564,2023-01-20 11:09:19.400207,193734326,0,0.093458,4.603497E-05,-0.06756254,-2.317382,0.1373199,-10.07173,0,0,31.09704,1,1,7973,996
12565,2023-01-20 11:09:19.439959,193774139,0,-0.08952821,-0.1594419,-0.06031281,-2.163739,0.1334166,-9.747187,0,0,31.09771,1,1,7973,996
12594,2023-01-20 11:09:19.480218,193814460,0,-0.2187075,-0.06095224,-0.06281839,-2.273617,0.1592515,-9.407742,0,0,31.09849,1,1,7973,996
12595,2023-01-20 11:09:19.519865,193854167,0,-0.1981458,0.1249142,-0.01888987,-2.440288,0.2956254,-9.50134,0,0,31.09974,1,1,7973,996
12600,2023-01-20 11:09:19.560145,193894509,0,-0.02339952,0.06896155,-0.07166396,-2.283948,0.2126549,-9.452232,0,0,31.10154,1,1,7973,996
12627,2023-01-20 11:09:19.600133,193934558,0,-0.207971,-0.007674772,-0.08265574,-2.222327,-0.1300551,-9.297319,0,0,31.10354,1,1,7973,996
12628,2023-01-20 11:09:19.639735,193974146,0,-0.2764296,0.05776343,-0.02698336,-2.364027,-0.05360154,-9.3409,0,0,31.10558,1,1,7973,996
12658,2023-01-20 11:09:19.679754,194014151,0,-0.2630216,-0.05320647,-0.06790528,-2.403613,-0.1649026,-9.21996,0,0,31.10705,1,1,7973,996
12659,2023-01-20 11:09:19.719809,194054193,0,-0.1901306,0.2230788,-0.0460091,-2.593132,-0.2973067,-8.954614,0,0,31.10843,1,1,7973,996
12666,2023-01-20 11:09:19.760285,194094655,0,0.02433186,0.2283597,-0.05165774,-2.800699,-0.05518518,-9.019343,0,0,31.1095,1,1,7973,996
12694,2023-01-20 11:09:19.800133,194134489,0,0.03834465,0.2564507,-0.02745983,-2.604547,-0.2488602,-9.115221,0,0,31.11139,1,1,7973,996
12695,2023-01-20 11:09:19.839828,194174188,0,-0.161972,0.263831,0.02514266,-2.739611,-0.4786334,-9.341235,0,0,31.11358,1,1,7973,996
12726,2023-01-20 11:09:19.879788,194214152,0,0.008292114,0.04729579,0.01360004,-2.763977,-0.273239,-9.341027,0,0,31.11544,1,1,7973,996
12727,2023-01-20 11:09:19.919796,194254165,0,-0.06850933,0.2219715,0.06461108,-2.903208,-0.146506,-9.259999,0,0,31.11713,1,1,7973,996
12732,2023-01-20 11:09:19.960176,194294549,0,-0.06734229,0.107897,0.07355115,-2.815647,-0.3346107,-9.392876,0,0,31.11909,1,1,7973,996
12760,2023-01-20 11:09:20.000129,194334506,0,-0.1526789,0.1244708,0.0917978,-2.675479,-0.4971221,-9.147513,0,0,31.12137,1,1,7973,996
12761,2023-01-20 11:09:20.039778,194374150,0,-0.2315677,0.1364574,0.09586392,-2.921218,-0.3308669,-9.176568,0,0,31.12321,1,1,7973,996
12790,2023-01-20 11:09:20.079781,194414148,0,-0.2207066,-0.08174466,0.06680803,-2.830628,-0.3954636,-9.268177,0,0,31.12518,1,1,7973,996
12791,2023-01-20 11:09:20.119777,194454140,0,-0.2497543,0.06295601,0.1113846,-2.970828,-0.4996608,-9.187141,0,0,31.12726,1,1,7973,996
12795,2023-01-20 11:09:20.160172,194494530,0,-0.1272525,-0.08054403,0.0641769,-2.898778,-0.3621159,-8.961967,0,0,31.1297,1,1,7973,996
12825,2023-01-20 11:09:20.200143,194534496,0,-0.1945788,0.03794765,0.1247611,-2.765415,-0.5939933,-8.913869,0,0,31.13262,1,1,7973,996
12826,2023-01-20 11:09:20.239782,194574139,0,-0.1941187,-0.09763007,0.1139733,-2.819791,-0.7022321,-8.710715,0,0,31.13552,1,1,7973,996
12855,2023-01-20 11:09:20.279793,194614154,0,-0.1786669,0.04499635,0.1475941,-3.00122,-0.4486954,-8.58412,0,0,31.13755,1,1,7973,996
12857,2023-01-20 11:09:20.319800,194654165,0,-0.2163639,0.1294713,0.1586778,-3.228282,-0.5881541,-9.111697,0,0,31.13932,1,1,7973,996
12861,2023-01-20 11:09:20.360147,194694516,0,-0.1879156,0.3440773,0.1676964,-3.075944,-0.4748793,-9.640228,0,0,31.14096,1,1,7973,996
12891,2023-01-20 11:09:20.400129,194734502,0,-0.004029699,0.3534987,0.1853082,-3.156177,-0.08517772,-10.5045,0,0,31.14217,1,1,7973,996
12892,2023-01-20 11:09:20.439783,194774165,0,0.09398808,0.06943664,0.1649581,-2.940085,-0.4521062,-10.41252,0,0,31.14271,1,1,7973,996
12921,2023-01-20 11:09:20.480028,194814419,0,0.007361234,0.004425182,0.1627089,-2.968411,-0.4327124,-9.828613,0,0,31.14312,1,1,7973,996
12924,2023-01-20 11:09:20.519762,194854162,0,-0.05126054,0.1526561,0.1640123,-3.117636,-0.3001528,-9.764231,0,0,31.143,1,1,7973,996
12928,2023-01-20 11:09:20.560118,194894527,0,0.06602792,-0.02372651,0.1053637,-3.029945,-0.1584338,-9.152525,0,0,31.14317,1,1,7973,996
12956,2023-01-20 11:09:20.600133,194934551,0,0.08884913,0.01357173,0.1075994,-3.095321,-0.2517941,-8.98398,0,0,31.14308,1,1,7973,996
12957,2023-01-20 11:09:20.639737,194974147,0,-0.02882093,-0.1910375,0.08929809,-2.752511,-0.4052983,-8.841109,0,0,31.14273,1,1,7973,996
12987,2023-01-20 11:09:20.679754,195014155,0,0.01291664,-0.03247793,0.07929563,-3.377852,-0.1475748,-8.674114,0,0,31.14294,1,1,7973,996
12988,2023-01-20 11:09:20.719748,195054140,0,-0.0855111,0.07950377,0.06166549,-3.298114,-0.3639613,-8.872499,0,0,31.1438,1,1,7973,996
12994,2023-01-20 11:09:20.760268,195094652,0,-0.09909058,0.1464247,-0.01711782,-3.231529,-0.3272092,-9.344038,0,0,31.1453,1,1,7973,996
13022,2023-01-20 11:09:20.800133,195134508,0,-0.156034,0.2369742,-0.004460379,-2.885465,-0.692844,-9.153255,0,0,31.14729,1,1,7973,996
13023,2023-01-20 11:09:20.839790,195174166,0,-0.1085059,-0.01289906,-0.01776916,-3.072629,-0.3917529,-8.871424,0,0,31.14927,1,1,7973,996
13054,2023-01-20 11:09:20.879770,195214147,0,-0.03602913,0.2940132,0.06582066,-3.161825,-0.4282688,-8.976666,0,0,31.15188,1,1,7973,996
13055,2023-01-20 11:09:20.919788,195254166,0,-0.02646905,0.3062776,0.03779242,-2.981833,-0.4820684,-9.363858,0,0,31.15444,1,1,7973,996
13059,2023-01-20 11:09:20.960146,195294525,0,0.1560958,0.3445728,0.07078335,-3.090077,-0.316303,-9.499107,0,0,31.1571,1,1,7973,996
13088,2023-01-20 11:09:21.000126,195334506,0,0.0825052,0.2811689,0.1067411,-2.944103,-0.5251886,-9.457367,0,0,31.1599,1,1,7973,996
13089,2023-01-20 11:09:21.039773,195374152,0,-0.05168837,0.2163566,0.05617255,-2.979833,-0.4859728,-9.34567,0,0,31.16276,1,1,7973,996
13118,2023-01-20 11:09:21.079775,195414153,0,-0.1664974,0.233903,0.04341017,-2.928795,-0.5668578,-9.630627,0,0,31.16529,1,1,7973,996
13119,2023-01-20 11:09:21.119762,195454140,0,-0.06199086,0.1306989,0.07204639,-3.132762,-0.2994591,-9.25806,0,0,31.16826,1,1,7973,996
13123,2023-01-20 11:09:21.160139,195494516,0,-0.105235,0.2149004,0.07811207,-2.899335,-0.4674048,-9.188098,0,0,31.17079,1,1,7973,996
13153,2023-01-20 11:09:21.200130,195534506,0,-0.008190142,-0.03392645,0.06895546,-2.846702,-0.1780567,-9.687406,0,0,31.17241,1,1,7973,996
13154,2023-01-20 11:09:21.239774,195574150,0,-0.1665829,0.06222927,0.1052324,-2.908455,-0.4218518,-9.82994,0,0,31.1738,1,1,7973,996
13183,2023-01-20 11:09:21.279759,195614135,0,-0.09671836,-0.1799072,0.0976996,-2.778102,-0.2192078,-9.841805,0,0,31.17442,1,1,7973,996
13185,2023-01-20 11:09:21.319762,195654138,0,-0.17772,0.03055109,0.1493165,-3.229016,-0.2812987,-9.68108,0,0,31.17548,1,1,7973,996
13189,2023-01-20 11:09:21.360189,195694565,0,-0.1328461,0.08018242,0.1008954,-2.793497,-0.4041028,-9.473872,0,0,31.17618,1,1,7973,996
13219,2023-01-20 11:09:21.400126,195734502,0,-0.127867,-0.06949228,0.1438537,-2.998783,-0.1611986,-9.602304,0,0,31.17658,1,1,7973,996
13220,2023-01-20 11:09:21.439762,195774156,0,-0.1741662,-0.005390854,0.1269169,-2.872255,-0.3003788,-9.333438,0,0,31.17719,1,1,7973,996
13249,2023-01-20 11:09:21.479780,195814193,0,-0.05906129,-0.2254927,0.09354886,-2.795925,-0.2332893,-9.266791,0,0,31.17701,1,1,7973,996
13250,2023-01-20 11:09:21.519734,195854165,0,-0.06581062,-0.008829839,0.1258366,-3.03732,-0.218594,-9.439934,0,0,31.17687,1,1,7973,996
13254,2023-01-20 11:09:21.560071,195894521,0,0.02899211,0.038389,0.09098523,-2.969465,-0.168274,-9.371327,0,0,31.17697,1,1,7973,996
13282,2023-01-20 11:09:21.600133,195934601,0,-0.03221557,-0.1018594,0.08572938,-2.844051,-0.4521566,-9.592605,0,0,31.17692,1,1,7973,996
13283,2023-01-20 11:09:21.639684,195974132,0,-0.1044864,0.04467198,0.09010359,-2.777844,-0.2511161,-9.686295,0,0,31.17697,1,1,7973,996
13313,2023-01-20 11:09:21.679721,196014149,0,0.002987023,-0.09015924,0.03294448,-2.982214,-0.05747727,-9.17448,0,0,31.17698,1,1,7973,996
13314,2023-01-20 11:09:21.719779,196054186,0,-0.007583021,0.05375579,0.07346103,-2.934802,-0.2750143,-9.106615,0,0,31.17728,1,1,7973,996
13320,2023-01-20 11:09:21.760258,196094645,0,0.0481099,-0.01659449,0.01505153,-2.824047,-0.1435617,-9.288394,0,0,31.17701,1,1,7973,996
13348,2023-01-20 11:09:21.800133,196134500,0,0.006849184,0.08596204,0.04543952,-2.964132,-0.1639348,-9.734729,0,0,31.177,1,1,7973,996
13349,2023-01-20 11:09:21.839815,196174183,0,0.1839861,-0.1329094,0.03218595,-2.711021,-0.2265766,-9.812617,0,0,31.17687,1,1,7973,996
13379,2023-01-20 11:09:21.879806,196214176,0,0.04899615,-0.07214511,0.07239699,-3.046328,-0.09290006,-10.01537,0,0,31.17704,1,1,7973,996
13381,2023-01-20 11:09:21.919780,196254151,0,0.1696725,-0.02855049,-0.002934693,-2.97587,-0.2125672,-9.843464,0,0,31.1766,1,1,7973,996
13385,2023-01-20 11:09:21.960209,196294582,0,0.09785887,0.1041051,0.05420393,-3.02004,-0.1230878,-9.711325,0,0,31.17749,1,1,7973,996
13414,2023-01-20 11:09:22.000129,196334503,0,0.1870105,-0.05203979,0.01763759,-2.778165,-0.2244232,-9.579672,0,0,31.17899,1,1,7973,996
13415,2023-01-20 11:09:22.039742,196374124,0,-0.02293495,-0.1215733,0.03769848,-2.610035,-0.1383068,-9.6864,0,0,31.17996,1,1,7973,996
13443,2023-01-20 11:09:22.079799,196414190,0,-0.009280958,-0.09636464,0.005723205,-2.983069,-0.1207811,-9.640231,0,0,31.18044,1,1,7973,996
13445,2023-01-20 11:09:22.119755,196454154,0,-0.04098878,-0.01681836,0.05400722,-2.923327,-0.07738858,-9.670999,0,0,31.18138,1,1,7973,996
13449,2023-01-20 11:09:22.160119,196494527,0,-0.09650598,-0.08805579,-0.02614096,-2.933054,-0.2047049,-9.790865,0,0,31.18164,1,1,7973,996
13479,2023-01-20 11:09:22.200130,196534546,0,-0.09941414,-0.05355246,0.01983446,-2.807814,-0.07666601,-9.539162,0,0,31.18103,1,1,7973,996
13480,2023-01-20 11:09:22.239747,196574155,0,-0.1367013,-0.190075,0.002496073,-2.92642,-0.1539237,-9.279688,0,0,31.1808,1,1,7973,996
13508,2023-01-20 11:09:22.279748,196614148,0,-0.1664333,-0.170044,-0.0117641,-2.643099,-0.03771535,-9.28627,0,0,31.18086,1,1,7973,996
13511,2023-01-20 11:09:22.319804,196654197,0,-0.1743681,-0.0939524,-0.003304664,-2.868515,-0.1430646,-9.377868,0,0,31.18116,1,1,7973,996
13515,2023-01-20 11:09:22.360134,196694519,0,-0.0653403,-0.1603755,-0.005946128,-2.791449,-0.05787136,-9.329186,0,0,31.18042,1,1,7973,996
13545,2023-01-20 11:09:22.400135,196734512,0,-0.1958873,-0.07133538,0.01291269,-2.801188,-0.1568131,-9.552591,0,0,31.17882,1,1,7973,996
13546,2023-01-20 11:09:22.439769,196774156,0,-0.05135056,-0.1430636,-0.01074358,-2.64309,-0.0261021,-9.505658,0,0,31.17694,1,1,7973,996
13574,2023-01-20 11:09:22.479765,196814162,0,-0.08747939,-0.05414246,0.04681704,-2.722351,0.04658734,-9.719646,0,0,31.17472,1,1,7973,996
13576,2023-01-20 11:09:22.519750,196854156,0,-0.03912686,-0.2173735,0.03042407,-2.68175,-0.0653031,-9.609434,0,0,31.17236,1,1,7973,996
13580,2023-01-20 11:09:22.560105,196894521,0,-0.0327814,0.1405805,0.07439369,-2.747216,-0.02964228,-9.517168,0,0,31.17032,1,1,7973,996
13608,2023-01-20 11:09:22.600129,196934555,0,-0.04537828,0.03053015,0.01176872,-2.630608,0.02030093,-9.7493,0,0,31.16858,1,1,7973,996
13609,2023-01-20 11:09:22.639724,196974141,0,-0.09481069,-0.06071902,0.04088177,-2.495991,-0.1414138,-9.834519,0,0,31.16709,1,1,7973,996
13638,2023-01-20 11:09:22.679748,197014155,0,0.01775304,0.08770899,0.05434743,-2.814747,0.03808453,-9.557796,0,0,31.166,1,1,7973,996
13640,2023-01-20 11:09:22.719752,197054149,0,-0.02223451,-0.120264,0.01192575,-2.642733,-0.06886227,-9.475174,0,0,31.16547,1,1,7973,996
13646,2023-01-20 11:09:22.760264,197094652,0,-0.1493264,0.05100293,0.05345964,-2.505179,-0.1425075,-9.603545,0,0,31.16685,1,1,7973,996
13674,2023-01-20 11:09:22.800136,197134514,0,0.05349011,-0.05170056,0.006848011,-2.624548,0.03428669,-9.618974,0,0,31.16785,1,1,7973,996
13675,2023-01-20 11:09:22.839785,197174162,0,0.09355877,-0.02871714,0.05039438,-2.694832,0.09403659,-9.788043,0,0,31.16872,1,1,7973,996
13705,2023-01-20 11:09:22.879781,197214157,0,-0.05699975,0.003485125,0.08897428,-2.765521,-0.05243202,-10.10934,0,0,31.16882,1,1,7973,996
13707,2023-01-20 11:09:22.919789,197254163,0,-0.02731251,-0.04307163,0.01418412,-2.682378,-0.05864059,-10.06766,0,0,31.1676,1,1,7973,996
13711,2023-01-20 11:09:22.960162,197294535,0,-0.07100908,-0.02921801,0.06962446,-2.751057,0.1456947,-9.897262,0,0,31.16535,1,1,7973,996
